serial,participant,trial,angle,is.correct,rt
1,1,1,80,1,0.838316643
2,1,6,40,1,0.659763904
3,1,10,80,1,0.844706069
4,1,17,80,1,0.758830087
5,1,20,40,1,0.697696401
6,1,21,160,1,1.658185602
7,1,22,160,1,1.457585497
8,1,24,40,1,1.140361689
9,1,29,160,1,1.283130582
10,1,40,160,1,1.82024603
11,1,41,120,1,1.049825559
12,1,42,80,1,0.953933849
13,1,51,160,1,1.975811642
14,1,59,40,1,1.11419316
15,1,62,0,1,1.856177934
16,1,96,120,1,1.038155676
17,1,108,120,1,1.678607987
18,1,114,120,1,1.287992394
19,1,124,80,1,0.852164349
20,1,131,40,1,0.772775161
21,1,132,160,1,1.385735181
22,1,133,80,1,0.692933049
23,1,134,160,1,1.278395675
24,1,135,160,1,0.752953026
25,1,137,0,1,0.70015247
26,1,138,80,1,0.851701215
27,1,139,40,1,1.580655149
28,1,141,120,1,0.918225125
29,1,143,80,1,0.89977817
30,1,144,120,1,0.842902763
31,1,150,80,1,0.795803496
32,1,151,160,1,0.969395231
33,1,153,80,1,0.592717419
34,1,159,80,1,0.773311229
35,1,169,40,1,0.74763829
36,1,179,160,1,1.242238768
37,1,185,0,1,0.938746701
38,1,188,160,1,1.59071172
39,1,192,0,1,1.447577062
40,1,194,80,1,0.80372491
41,1,195,40,1,0.656785624
42,1,197,0,1,0.777184051
43,1,205,120,1,1.707661075
44,1,207,80,1,0.707991833
45,1,210,120,1,0.995210392
46,1,212,40,1,1.007912662
47,1,213,0,1,0.693834884
48,1,217,160,1,1.952519649
49,1,223,120,1,0.961761178
50,1,225,0,1,0.593572575
51,1,226,40,1,0.707136676
52,1,227,80,1,0.761996538
53,1,228,40,1,0.544970493
54,1,235,40,1,0.658082399
55,1,239,120,1,0.67531463
56,1,244,80,1,0.811874974
57,1,245,40,1,0.711118534
58,1,248,0,1,0.617923577
59,1,249,40,1,0.892277952
60,1,251,160,1,1.259954555
61,1,253,120,1,0.939412593
62,1,266,40,1,0.647939765
63,1,267,160,1,0.787575756
64,1,277,40,1,0.769004448
65,1,278,120,1,0.729539597
66,1,281,120,1,1.3759182
67,1,282,120,1,0.852421443
68,1,284,80,1,0.809960079
69,1,287,120,1,0.676997229
70,1,290,160,1,1.170347245
71,1,294,40,1,0.740048728
72,1,295,0,1,0.631963101
73,1,296,120,1,0.732029945
74,1,312,160,1,0.806955179
75,1,324,40,1,0.690251613
76,1,328,160,1,1.571435136
77,1,329,80,1,0.640694818
78,1,330,0,1,0.635724697
79,1,332,80,1,0.66840664
80,1,334,40,1,0.708444391
81,1,335,80,1,0.627953528
82,1,348,80,1,0.676582232
83,1,350,160,1,0.998967977
84,1,354,80,1,0.667034743
85,1,364,40,1,0.785514263
86,1,365,120,1,1.229377136
87,1,368,40,1,0.835726375
88,1,371,120,1,0.733113752
89,1,373,80,1,0.991093605
90,1,375,0,1,0.699332686
91,1,376,160,1,1.070313585
92,1,384,40,1,0.665406116
93,1,396,40,1,0.707641018
94,1,403,0,1,0.573079808
95,1,404,40,1,0.739230767
96,1,405,40,1,0.626179761
97,1,406,80,1,0.740263884
98,1,408,40,1,0.767528619
99,1,418,120,1,0.707006853
100,1,419,80,1,0.665787928
101,1,425,40,1,1.022003605
102,1,427,80,1,0.990945548
103,1,433,120,1,0.725893238
104,1,435,80,1,0.550641149
105,1,436,40,1,0.686444798
106,1,437,160,1,1.040019153
107,1,438,120,1,0.893490488
108,1,440,80,1,0.615761434
109,1,441,0,1,0.537543574
110,1,442,160,1,0.722578001
111,1,443,40,1,0.542693113
112,1,447,120,1,0.756488525
113,1,453,120,1,0.813065994
114,1,454,120,1,1.079679468
115,1,460,120,1,1.171703462
116,1,467,80,1,0.614828602
117,1,472,0,1,0.906522057
118,1,473,160,1,1.257947033
119,1,482,80,1,0.804667224
120,1,483,120,1,1.344826958
121,1,491,120,1,0.766863456
122,1,496,160,1,0.729246401
123,1,501,160,1,0.822494235
124,1,505,80,1,0.703167217
125,1,508,120,1,0.786264394
126,1,509,40,1,0.551286254
127,1,514,120,1,0.886143797
128,1,515,160,1,0.789329466
129,1,531,160,1,1.211322204
130,1,532,40,1,0.628153003
131,1,536,40,1,0.841870011
132,1,537,120,1,1.087946956
133,1,538,120,1,0.692961494
134,1,541,160,1,1.32440676
135,1,556,80,1,0.753991978
136,1,562,0,1,0.642552094
137,1,572,0,1,0.688268524
138,2,5,120,1,1.95965556
139,2,7,80,1,0.958988574
140,2,10,120,1,3.588217726
141,2,11,120,1,1.755347101
142,2,17,160,1,1.754941585
143,2,23,80,1,3.304801605
144,2,26,40,1,1.773207662
145,2,27,120,1,2.865773195
146,2,37,120,1,3.278050695
147,2,38,80,1,1.056884888
148,2,48,120,1,1.12013805
149,2,52,40,1,0.707373348
150,2,56,0,1,0.675283268
151,2,61,0,1,0.712071423
152,2,64,40,1,0.854769569
153,2,65,40,1,0.749847111
154,2,68,80,1,1.001029106
155,2,75,40,1,0.769515719
156,2,78,40,1,0.64597418
157,2,79,40,1,0.716640404
158,2,81,120,1,1.821953791
159,2,94,40,1,2.001354393
160,2,95,40,1,1.289615551
161,2,96,0,1,0.806631714
162,2,99,120,1,2.062817744
163,2,107,120,1,2.809243133
164,2,115,160,1,0.916724133
165,2,117,40,1,0.677237548
166,2,121,160,1,0.972918331
167,2,126,80,1,0.919656464
168,2,127,160,1,1.493186278
169,2,129,80,1,0.792972908
170,2,137,80,1,0.945178064
171,2,138,160,1,1.711199127
172,2,140,80,1,0.842104495
173,2,150,80,1,0.857630789
174,2,154,160,1,2.13924251
175,2,155,40,1,1.756466645
176,2,169,160,1,2.457922454
177,2,177,80,1,1.458651799
178,2,180,40,1,0.813607533
179,2,181,80,1,0.88673019
180,2,182,40,1,0.990284762
181,2,187,160,1,2.292600031
182,2,188,160,1,2.343921111
183,2,191,0,1,0.772794853
184,2,201,160,1,1.461827731
185,2,208,40,1,0.689444593
186,2,210,80,1,1.148354215
187,2,211,120,1,1.262101016
188,2,212,80,1,1.142932995
189,2,215,120,1,1.994880364
190,2,217,40,1,1.713667595
191,2,224,160,1,2.421446459
192,2,227,80,1,0.822742577
193,2,232,120,1,2.36830858
194,2,233,160,1,1.609712613
195,2,237,120,1,1.536588132
196,2,243,0,1,0.702570612
197,2,244,0,1,0.62698751
198,2,246,80,1,0.773539514
199,2,247,160,1,1.279343094
200,2,250,160,1,1.211218637
201,2,253,120,1,2.48565871
202,2,258,160,1,2.217531846
203,2,259,120,1,1.144184186
204,2,263,40,1,0.761801438
205,2,275,120,1,1.327221302
206,2,276,0,1,0.708589896
207,2,280,80,1,1.785224713
208,2,281,0,1,0.609231974
209,2,293,160,1,3.481184544
210,2,296,80,1,2.663825261
211,2,300,80,1,0.849482913
212,2,301,0,1,0.621757014
213,2,304,160,1,2.839222489
214,2,306,120,1,1.153936621
215,2,307,0,1,0.617704044
216,2,318,80,1,0.700899319
217,2,326,40,1,0.680404728
218,2,327,40,1,0.695721335
219,2,341,160,1,2.105862948
220,2,349,120,1,0.958906887
221,2,360,160,1,2.780484336
222,2,362,40,1,1.278350091
223,2,363,80,1,1.266189724
224,2,370,40,1,0.684358507
225,2,371,0,1,0.642091513
226,2,375,80,1,0.997130757
227,2,381,120,1,2.10787047
228,2,382,120,1,1.041475654
229,2,390,160,1,2.59435188
230,2,391,40,1,1.565399442
231,2,393,160,1,1.307449492
232,2,395,120,1,2.497198404
233,2,396,120,1,1.745413059
234,2,397,40,1,0.98017276
235,2,398,40,1,0.881097824
236,2,405,80,1,0.694696241
237,2,406,80,1,0.822459592
238,2,407,80,1,0.720112086
239,2,411,0,1,0.658777829
240,2,413,40,1,1.027561942
241,2,414,80,1,0.827038054
242,2,420,120,1,2.853407153
243,2,428,120,1,1.518848642
244,2,429,0,1,0.670309866
245,2,431,0,1,0.551063804
246,2,433,40,1,0.610302288
247,2,439,40,1,0.623253994
248,2,442,160,1,1.622608888
249,2,447,160,1,1.144616323
250,2,450,80,1,0.919120395
251,2,459,80,1,0.914909158
252,2,461,80,1,1.154361829
253,2,465,80,1,1.15402633
254,2,474,40,1,1.275865577
255,2,475,160,1,2.277489828
256,2,476,80,1,1.095443163
257,2,482,160,1,1.752377573
258,2,486,40,1,0.689884753
259,2,487,0,1,0.572545563
260,2,489,160,1,1.02936853
261,2,500,80,1,0.7496418
262,2,507,40,1,1.254792981
263,2,510,120,1,1.253331738
264,2,514,160,1,1.207007764
265,2,515,120,1,1.329999376
266,2,521,160,1,3.699744401
267,2,525,40,1,0.657428542
268,2,528,120,1,3.274364586
269,2,529,160,1,0.909845682
270,2,530,40,1,0.757982224
271,2,534,160,1,0.942196502
272,2,538,120,1,0.926816443
273,2,552,0,1,0.652577304
274,2,554,40,1,0.745444056
275,2,571,120,1,0.944756138
276,2,574,120,1,1.058349777
277,3,9,120,1,3.27517197
278,3,10,80,1,2.118512341
279,3,19,120,1,1.503184502
280,3,23,120,1,2.349404326
281,3,37,80,1,1.090115663
282,3,40,80,1,2.0072475
283,3,42,160,1,1.63417958
284,3,46,160,1,2.326451843
285,3,52,120,1,1.403341931
286,3,56,80,1,1.243499805
287,3,57,80,1,1.156518137
288,3,64,160,1,3.488808021
289,3,68,80,1,0.876543066
290,3,80,160,1,1.516096459
291,3,81,0,1,0.638975752
292,3,90,160,1,2.473503813
293,3,92,80,1,1.089928586
294,3,98,40,1,0.692895853
295,3,99,160,1,1.975750742
296,3,102,120,1,0.929974506
297,3,103,120,1,2.108251188
298,3,107,160,1,1.370613674
299,3,109,80,1,1.575301393
300,3,111,120,1,1.351616064
301,3,118,40,1,1.179708386
302,3,122,40,1,1.077960766
303,3,123,120,1,1.375875168
304,3,124,80,1,1.208011343
305,3,126,120,1,1.408369305
306,3,133,120,1,1.291870686
307,3,134,80,1,1.059731886
308,3,144,40,1,0.929024899
309,3,147,80,1,1.026831868
310,3,151,40,1,0.960303582
311,3,152,40,1,0.865158357
312,3,153,120,1,1.078711627
313,3,163,160,1,1.588212985
314,3,166,120,1,1.186823874
315,3,167,40,1,0.90908461
316,3,170,40,1,0.917972042
317,3,172,0,1,0.616434255
318,3,173,40,1,0.75559289
319,3,174,160,1,1.814107863
320,3,175,120,1,0.864536591
321,3,178,120,1,1.098392269
322,3,182,40,1,0.586233543
323,3,187,40,1,1.288509865
324,3,189,0,1,0.638200458
325,3,204,0,1,0.6508958
326,3,206,80,1,0.856379233
327,3,207,80,1,1.088557418
328,3,208,160,1,0.990457617
329,3,211,0,1,0.706839833
330,3,216,40,1,0.710660506
331,3,219,80,1,0.989959109
332,3,220,0,1,0.557365344
333,3,221,40,1,0.586847651
334,3,222,120,1,0.719082251
335,3,224,160,1,1.085867229
336,3,228,120,1,0.853104839
337,3,232,40,1,1.217937362
338,3,238,160,1,1.442716343
339,3,256,40,1,0.988241867
340,3,263,80,1,1.440657767
341,3,264,40,1,1.341833726
342,3,271,160,1,1.027527663
343,3,272,80,1,1.038630115
344,3,275,0,1,0.697338657
345,3,279,160,1,1.260070885
346,3,280,160,1,1.263276356
347,3,284,160,1,1.660771494
348,3,285,0,1,0.687236501
349,3,294,120,1,1.027206022
350,3,295,160,1,1.035869545
351,3,297,40,1,0.820320058
352,3,302,80,1,1.322376993
353,3,318,120,1,1.375939351
354,3,320,80,1,0.939469846
355,3,321,120,1,0.896651468
356,3,323,40,1,0.904419356
357,3,330,160,1,1.489142061
358,3,334,120,1,0.994117834
359,3,344,80,1,1.67692393
360,3,347,160,1,1.556592603
361,3,350,0,1,0.615111223
362,3,351,80,1,0.833381166
363,3,354,40,1,0.829672448
364,3,355,80,1,0.977369523
365,3,359,160,1,1.387452424
366,3,363,40,1,0.741034437
367,3,365,120,1,1.394483673
368,3,370,120,1,0.849011027
369,3,372,120,1,1.06348947
370,3,390,160,1,1.953901393
371,3,393,120,1,1.139630521
372,3,397,40,1,0.986392613
373,3,399,40,1,0.985631177
374,3,411,120,1,1.796424897
375,3,413,80,1,1.131257642
376,3,427,0,1,0.744073982
377,3,430,40,1,0.852787574
378,3,435,80,1,1.026451879
379,3,438,120,1,1.031180952
380,3,440,40,1,0.706925166
381,3,450,80,1,0.849126992
382,3,451,40,1,0.6993728
383,3,455,80,1,0.755959021
384,3,456,80,1,1.158181772
385,3,459,40,1,1.170821683
386,3,462,120,1,0.975801067
387,3,463,40,1,0.850088269
388,3,466,0,1,0.690590029
389,3,468,160,1,0.850472269
390,3,469,80,1,0.75044955
391,3,473,0,1,0.566064969
392,3,474,40,1,0.823194042
393,3,479,120,1,0.958727104
394,3,484,160,1,1.123861356
395,3,486,80,1,0.852063335
396,3,488,160,1,1.027785122
397,3,493,0,1,0.736056658
398,3,494,0,1,0.538222959
399,3,502,40,1,0.839164142
400,3,506,160,1,1.181378586
401,3,512,160,1,1.88022881
402,3,513,40,1,0.637921119
403,3,515,120,1,0.79967814
404,3,518,80,1,0.959083753
405,3,519,160,1,1.107676829
406,3,522,120,1,1.074357803
407,3,523,160,1,1.704420231
408,3,524,80,1,0.879138075
409,3,526,0,1,0.795515404
410,3,537,40,1,0.876473778
411,3,539,0,1,0.759005859
412,3,540,80,1,0.742140489
413,3,545,120,1,1.023861976
414,3,549,80,1,0.770850055
415,3,551,120,1,0.810813777
416,3,552,40,1,0.585292323
417,3,562,160,1,1.337654215
418,3,569,160,1,0.972351995
419,4,5,160,1,1.824800424
420,4,9,40,1,3.879547967
421,4,10,120,1,2.835849999
422,4,12,120,1,2.144117086
423,4,18,80,1,1.610393091
424,4,23,40,1,1.243673024
425,4,24,40,1,1.249376137
426,4,27,120,1,1.566912103
427,4,28,40,1,1.581243365
428,4,34,80,1,1.523933634
429,4,38,120,1,3.064938314
430,4,39,40,1,1.411192599
431,4,40,120,1,2.043894527
432,4,44,160,1,1.962721725
433,4,50,0,1,1.086589645
434,4,61,160,1,3.511273666
435,4,63,160,1,3.522175184
436,4,65,160,1,3.056528603
437,4,69,80,1,1.310283726
438,4,75,160,1,2.016630886
439,4,79,40,1,1.0754799
440,4,80,0,1,0.905304051
441,4,81,80,1,1.205049109
442,4,82,0,1,1.22508093
443,4,85,80,1,1.814670188
444,4,91,120,1,2.955339297
445,4,96,80,1,1.096319835
446,4,101,80,1,1.436865174
447,4,118,80,1,1.485928567
448,4,119,40,1,1.495344045
449,4,125,120,1,1.765839091
450,4,133,160,1,2.908687117
451,4,141,160,1,1.725466936
452,4,153,120,1,2.079825336
453,4,155,160,1,3.020775024
454,4,157,40,1,1.326645484
455,4,159,120,1,2.075459843
456,4,173,120,1,2.417486116
457,4,174,120,1,1.867377754
458,4,177,40,1,1.108676031
459,4,187,40,1,1.221402844
460,4,193,120,1,1.58852478
461,4,194,0,1,1.122783384
462,4,196,0,1,1.034845909
463,4,197,160,1,1.536628975
464,4,198,80,1,1.020064642
465,4,201,40,1,1.011424823
466,4,202,160,1,2.389230931
467,4,207,80,1,1.282556223
468,4,212,120,1,1.290722332
469,4,219,40,1,2.162216508
470,4,222,80,1,1.072876503
471,4,230,80,1,1.277913942
472,4,237,40,1,1.044619495
473,4,238,0,1,0.730002731
474,4,242,160,1,2.183471076
475,4,243,80,1,1.544577376
476,4,248,80,1,1.339448769
477,4,252,40,1,1.09403188
478,4,253,120,1,1.306879874
479,4,256,160,1,2.286528599
480,4,264,40,1,1.153222592
481,4,265,120,1,1.606107461
482,4,267,0,1,1.26902104
483,4,269,80,1,1.286080417
484,4,272,40,1,1.081570659
485,4,278,120,1,1.341329749
486,4,279,0,1,0.693434474
487,4,282,80,1,1.144089736
488,4,299,160,1,1.822141962
489,4,301,160,1,1.507548172
490,4,305,120,1,1.485406721
491,4,307,160,1,2.168801034
492,4,310,80,1,1.137343296
493,4,314,40,1,0.887018281
494,4,316,160,1,1.538336736
495,4,321,0,1,0.745646449
496,4,324,120,1,1.228491346
497,4,326,120,1,1.594833613
498,4,331,120,1,1.240535383
499,4,335,40,1,0.834906226
500,4,337,80,1,1.001312821
501,4,340,120,1,1.886242988
502,4,343,80,1,0.872293173
503,4,344,120,1,0.878239522
504,4,348,120,1,1.199819706
505,4,353,80,1,0.990511223
506,4,356,120,1,1.22954452
507,4,358,40,1,1.106774264
508,4,360,120,1,1.456639536
509,4,362,80,1,1.407856576
510,4,375,160,1,2.403339378
511,4,378,40,1,0.92703634
512,4,381,0,1,0.966549327
513,4,385,0,1,1.076951353
514,4,387,160,1,2.195983352
515,4,388,40,1,1.024880506
516,4,390,160,1,1.82156505
517,4,395,0,1,1.19771664
518,4,413,80,1,0.993933674
519,4,414,160,1,1.394195582
520,4,416,120,1,1.064534257
521,4,417,0,1,0.773135822
522,4,424,80,1,0.967970456
523,4,430,0,1,0.738918972
524,4,431,40,1,0.833355274
525,4,437,160,1,1.424436043
526,4,438,80,1,0.923911097
527,4,439,160,1,1.35901855
528,4,441,160,1,1.875037698
529,4,444,80,1,0.958324141
530,4,445,0,1,0.701150943
531,4,447,120,1,1.724342651
532,4,462,40,1,1.062054849
533,4,468,40,1,0.843706137
534,4,471,80,1,1.244113184
535,4,472,120,1,1.259058919
536,4,476,40,1,1.094215311
537,4,492,120,1,2.258555306
538,4,494,80,1,1.448025609
539,4,499,80,1,1.025220381
540,4,500,40,1,0.894204881
541,4,502,40,1,1.034626741
542,4,513,80,1,1.495126335
543,4,516,40,1,0.859936977
544,4,524,80,1,0.952817952
545,4,532,80,1,1.119313161
546,4,540,120,1,1.475743266
547,4,545,40,1,0.986723735
548,4,550,160,1,1.854652509
549,4,554,40,1,1.048796453
550,4,558,120,1,1.276184666
551,4,560,160,1,2.396271297
552,4,564,40,1,0.88281689
553,4,566,120,1,1.411472303
554,4,568,0,1,0.666702891
555,4,571,160,1,1.99924294
556,4,572,40,1,0.890196766
557,5,4,160,1,1.587568609
558,5,7,120,1,1.010203535
559,5,10,160,1,1.717132347
560,5,12,80,1,1.875423157
561,5,13,160,1,2.37914081
562,5,15,40,1,1.613466915
563,5,22,80,1,1.18476384
564,5,23,160,1,1.935175099
565,5,32,80,1,2.42519675
566,5,39,80,1,1.905605271
567,5,43,80,1,2.791027016
568,5,45,120,1,2.555759691
569,5,57,160,1,2.895636585
570,5,64,80,1,1.522790386
571,5,66,40,1,1.193559374
572,5,75,40,1,1.359589627
573,5,76,80,1,2.309470142
574,5,79,120,1,0.98178133
575,5,82,160,1,2.278099561
576,5,95,0,1,1.61925062
577,5,96,40,1,1.272265531
578,5,115,0,1,0.842272245
579,5,121,160,1,1.508546281
580,5,122,80,1,1.496314803
581,5,123,120,1,1.684243635
582,5,126,80,1,2.249325447
583,5,133,160,1,3.227022811
584,5,135,120,1,2.579391559
585,5,136,40,1,0.918589432
586,5,140,120,1,0.961339252
587,5,144,40,1,0.919882196
588,5,146,40,1,1.127890257
589,5,148,40,1,0.972240405
590,5,154,0,1,0.669038618
591,5,162,0,1,0.954896584
592,5,165,120,1,1.399946831
593,5,166,40,1,0.965036301
594,5,170,0,1,0.88273885
595,5,175,0,1,0.912509614
596,5,186,80,1,1.160610491
597,5,188,160,1,1.615588944
598,5,193,80,1,0.877492308
599,5,197,120,1,1.793823324
600,5,198,40,1,0.778172677
601,5,200,80,1,1.489289388
602,5,202,80,1,1.202133553
603,5,203,40,1,0.610000704
604,5,212,120,1,1.344314228
605,5,215,80,1,1.375958314
606,5,218,40,1,0.902619697
607,5,219,40,1,0.74961992
608,5,223,160,1,1.774447184
609,5,225,80,1,1.017956471
610,5,226,80,1,1.051300294
611,5,228,40,1,0.736760841
612,5,232,40,1,0.998375749
613,5,239,120,1,1.495648546
614,5,243,120,1,2.84760412
615,5,246,0,1,0.730284988
616,5,256,120,1,1.509282919
617,5,266,160,1,1.194173483
618,5,276,120,1,1.487790949
619,5,279,160,1,1.769938374
620,5,284,40,1,1.165244383
621,5,286,160,1,1.911527186
622,5,293,120,1,0.979326355
623,5,299,160,1,2.449034657
624,5,301,80,1,0.936299749
625,5,308,160,1,1.168000578
626,5,310,80,1,1.020948608
627,5,313,120,1,1.223875688
628,5,318,120,1,2.775095572
629,5,320,160,1,1.886343273
630,5,325,80,1,1.812793584
631,5,327,80,1,1.993160933
632,5,328,40,1,0.945508822
633,5,329,120,1,1.475719927
634,5,330,80,1,1.579758054
635,5,331,80,1,1.098698594
636,5,336,40,1,0.847778798
637,5,339,80,1,2.362220374
638,5,346,120,1,0.863609958
639,5,350,120,1,2.999004444
640,5,351,80,1,1.358503997
641,5,355,80,1,1.129713619
642,5,356,40,1,0.943721562
643,5,358,0,1,0.887512048
644,5,361,120,1,1.024261657
645,5,365,120,1,1.410411106
646,5,366,160,1,1.152784985
647,5,369,40,1,1.325366578
648,5,370,40,1,0.787256668
649,5,372,80,1,1.091759971
650,5,377,0,1,0.771771218
651,5,385,120,1,0.97715619
652,5,387,80,1,0.914605021
653,5,393,80,1,1.07766757
654,5,394,40,1,1.444464947
655,5,399,40,1,0.873811305
656,5,400,160,1,2.13991059
657,5,411,160,1,1.614095975
658,5,416,80,1,0.830797097
659,5,421,0,1,0.674214778
660,5,422,80,1,1.132999318
661,5,433,160,1,1.526585167
662,5,436,0,1,0.77449058
663,5,440,120,1,1.597767767
664,5,445,40,1,1.141215752
665,5,448,160,1,2.193351511
666,5,454,40,1,0.852105272
667,5,456,80,1,0.902270706
668,5,463,160,1,1.327295695
669,5,465,120,1,1.106221786
670,5,467,120,1,0.890762009
671,5,471,160,1,1.527430113
672,5,472,160,1,1.142798066
673,5,477,40,1,0.794470253
674,5,478,0,1,0.660958571
675,5,482,120,1,1.177530562
676,5,490,40,1,0.807498905
677,5,494,0,1,1.102438309
678,5,505,40,1,0.787986377
679,5,507,40,1,1.021226488
680,5,509,40,1,0.807558711
681,5,511,0,1,0.710888061
682,5,514,160,1,1.11406516
683,5,515,160,1,1.342024815
684,5,525,80,1,0.88518325
685,5,537,120,1,0.926377377
686,5,551,40,1,0.831809063
687,5,556,160,1,1.263918544
688,5,558,120,1,2.084432973
689,5,559,40,1,1.017571376
690,5,561,120,1,1.708398807
691,5,564,160,1,1.597741146
692,6,8,120,1,3.379223955
693,6,12,120,1,1.711424494
694,6,17,40,1,1.335199605
695,6,19,40,1,1.811051544
696,6,25,40,1,2.180272899
697,6,27,40,1,0.974935334
698,6,39,120,1,2.946158304
699,6,43,0,1,0.756295614
700,6,57,160,1,1.864432659
701,6,64,80,1,1.597582149
702,6,71,160,1,1.189112923
703,6,75,40,1,1.206136562
704,6,76,160,1,1.614009548
705,6,77,40,1,1.419873626
706,6,80,160,1,1.774785235
707,6,83,0,1,0.671554493
708,6,86,80,1,1.143917246
709,6,95,0,1,0.707361679
710,6,97,120,1,0.932328466
711,6,98,160,1,2.112426687
712,6,108,40,1,0.782799277
713,6,116,80,1,0.757373585
714,6,122,40,1,0.640118635
715,6,124,120,1,0.857739461
716,6,129,80,1,1.122933994
717,6,132,120,1,1.105486242
718,6,133,160,1,1.612201867
719,6,138,40,1,0.818812138
720,6,139,40,1,0.808866791
721,6,141,0,1,0.833915411
722,6,143,40,1,1.107184886
723,6,145,0,1,0.914743962
724,6,146,80,1,0.854263768
725,6,150,160,1,1.106036897
726,6,155,80,1,0.795657627
727,6,156,40,1,0.716830034
728,6,160,80,1,0.941638189
729,6,168,80,1,0.947154589
730,6,170,120,1,0.94400856
731,6,174,0,1,0.772584437
732,6,179,0,1,1.076425495
733,6,180,120,1,1.404035173
734,6,182,40,1,1.073482954
735,6,183,120,1,1.2229104
736,6,185,80,1,0.998390701
737,6,187,80,1,0.929455577
738,6,188,120,1,1.059966005
739,6,192,80,1,1.309643726
740,6,205,0,1,0.610780373
741,6,211,40,1,0.83684993
742,6,218,160,1,2.411983574
743,6,225,120,1,1.303564272
744,6,228,80,1,1.046496829
745,6,233,120,1,1.304239281
746,6,241,120,1,1.00212057
747,6,246,80,1,1.341847948
748,6,251,40,1,1.17501177
749,6,257,40,1,0.73046623
750,6,261,160,1,0.816699226
751,6,262,80,1,0.767656619
752,6,278,80,1,1.027555743
753,6,279,80,1,0.77834225
754,6,280,120,1,1.611394117
755,6,288,160,1,1.176629092
756,6,292,0,1,0.709612072
757,6,296,80,1,0.905181886
758,6,297,80,1,1.400851583
759,6,298,120,1,0.717932803
760,6,300,80,1,1.012992549
761,6,304,160,1,2.404929715
762,6,308,40,1,1.049785445
763,6,309,0,1,0.711844232
764,6,323,120,1,1.040510366
765,6,326,120,1,1.0345611
766,6,328,120,1,0.942122838
767,6,329,120,1,1.480140486
768,6,346,80,1,1.26045525
769,6,359,120,1,0.891632846
770,6,361,120,1,0.969729271
771,6,365,40,1,0.769539422
772,6,369,40,1,0.83952225
773,6,375,0,1,1.073089837
774,6,377,0,1,0.801042015
775,6,380,160,1,1.369077674
776,6,382,40,1,0.939177744
777,6,388,120,1,1.86073014
778,6,391,120,1,2.12894489
779,6,396,40,1,0.884188423
780,6,397,120,1,1.263400709
781,6,399,80,1,1.313229185
782,6,401,160,1,1.739162209
783,6,402,80,1,1.090399378
784,6,411,40,1,0.632554964
785,6,412,40,1,0.712337634
786,6,417,160,1,3.056937401
787,6,433,40,1,1.072258384
788,6,434,80,1,1.070567762
789,6,437,80,1,0.961117531
790,6,443,0,1,0.620568911
791,6,445,120,1,0.995332922
792,6,447,0,1,0.615996283
793,6,458,80,1,0.673409946
794,6,466,40,1,0.640052994
795,6,469,120,1,0.752410758
796,6,470,120,1,0.896382705
797,6,473,160,1,2.956207217
798,6,479,160,1,1.511077472
799,6,484,0,1,0.638116948
800,6,491,160,1,0.861695063
801,6,492,160,1,0.915272737
802,6,497,80,1,0.877293926
803,6,499,160,1,1.678820956
804,6,500,160,1,1.667343255
805,6,519,120,1,0.90287825
806,6,523,120,1,1.411295802
807,6,526,80,1,0.82462137
808,6,527,40,1,0.618578893
809,6,528,40,1,0.817498953
810,6,529,160,1,1.227967677
811,6,534,80,1,0.742265207
812,6,541,160,1,0.839801589
813,6,542,40,1,1.005747602
814,6,544,40,1,1.089270717
815,6,545,40,1,0.879624548
816,6,546,40,1,0.802059816
817,6,549,160,1,0.975067711
818,6,550,0,1,0.727744315
819,6,555,80,1,0.693669688
820,6,556,80,1,0.755644309
821,6,560,80,1,0.657093043
822,6,561,160,1,0.993385207
823,6,567,120,1,1.281068359
824,6,568,160,1,1.445067021
825,6,569,40,1,0.641219217
826,6,573,80,1,1.304944557
827,7,1,0,1,0.701583809
828,7,3,40,1,0.852878378
829,7,5,40,1,0.924881855
830,7,7,80,1,1.339240176
831,7,10,40,1,1.441302143
832,7,11,80,1,0.84609547
833,7,18,160,1,3.331952927
834,7,19,40,1,1.087422193
835,7,22,120,1,1.490453058
836,7,23,40,1,0.780016826
837,7,27,160,1,1.475656474
838,7,37,40,1,0.879274827
839,7,38,80,1,0.82727035
840,7,44,80,1,0.958289861
841,7,45,160,1,1.474947551
842,7,54,80,1,0.81918228
843,7,60,120,1,1.303319941
844,7,61,0,1,0.65892771
845,7,63,120,1,1.206078579
846,7,66,120,1,1.415383415
847,7,67,160,1,1.026970444
848,7,69,80,1,1.012327022
849,7,73,120,1,0.877564513
850,7,80,160,1,0.991332466
851,7,81,80,1,0.718898456
852,7,84,120,1,1.273076563
853,7,89,120,1,2.078753564
854,7,91,120,1,2.311336535
855,7,103,160,1,2.760734407
856,7,113,40,1,1.195261301
857,7,114,120,1,1.55716368
858,7,118,160,1,1.459829326
859,7,121,160,1,1.008991728
860,7,129,160,1,2.179085526
861,7,130,80,1,0.878615135
862,7,131,40,1,0.944981506
863,7,132,160,1,1.374975521
864,7,138,80,1,1.409202217
865,7,139,160,1,1.109401365
866,7,149,80,1,0.874410461
867,7,150,80,1,0.674666972
868,7,153,40,1,0.790980703
869,7,157,40,1,2.000211145
870,7,160,120,1,1.059494848
871,7,166,120,1,1.27562927
872,7,168,40,1,0.957585314
873,7,174,80,1,0.922308727
874,7,175,0,1,0.728400726
875,7,178,160,1,1.69372293
876,7,181,80,1,1.775009509
877,7,186,120,1,0.803439372
878,7,188,160,1,1.161746081
879,7,192,0,1,0.850641477
880,7,193,160,1,1.370717971
881,7,199,120,1,0.922619063
882,7,204,0,1,0.874519134
883,7,206,40,1,0.661573773
884,7,207,0,1,0.552827725
885,7,218,40,1,0.588288472
886,7,225,120,1,1.045267883
887,7,232,40,1,0.782982707
888,7,235,160,1,1.366488135
889,7,247,80,1,0.990718722
890,7,264,120,1,1.295459062
891,7,266,0,1,0.807355953
892,7,268,40,1,1.026361805
893,7,273,80,1,0.918420954
894,7,275,80,1,0.862506095
895,7,278,0,1,0.640641575
896,7,281,160,1,0.938725915
897,7,283,40,1,0.775579492
898,7,284,120,1,0.687679214
899,7,292,40,1,0.608850892
900,7,297,160,1,1.238854243
901,7,306,120,1,1.155231208
902,7,310,80,1,0.737579895
903,7,317,80,1,1.211022078
904,7,321,40,1,0.911306195
905,7,323,160,1,2.01169541
906,7,325,160,1,1.132392503
907,7,330,120,1,2.016909131
908,7,332,80,1,1.383247386
909,7,334,40,1,0.629328343
910,7,335,40,1,1.606735062
911,7,338,80,1,1.324771797
912,7,341,160,1,1.657783003
913,7,344,0,1,0.86978605
914,7,350,160,1,2.037321306
915,7,351,120,1,1.970640587
916,7,363,40,1,0.779385943
917,7,374,160,1,0.88101942
918,7,381,0,1,0.652137509
919,7,382,160,1,1.929235679
920,7,385,40,1,1.34007017
921,7,391,120,1,1.253056411
922,7,394,80,1,0.978683802
923,7,396,0,1,0.649983025
924,7,406,0,1,1.541346378
925,7,409,80,1,0.852903905
926,7,410,80,1,1.428266562
927,7,413,120,1,0.832033702
928,7,415,120,1,2.918307905
929,7,418,120,1,0.939466564
930,7,421,160,1,1.595867459
931,7,424,80,1,1.060564068
932,7,427,0,1,0.692974987
933,7,428,80,1,0.736049
934,7,431,120,1,1.265478248
935,7,432,160,1,0.89366079
936,7,434,40,1,0.660290491
937,7,438,40,1,0.601649705
938,7,440,0,1,1.446562543
939,7,450,160,1,1.864896158
940,7,451,40,1,0.830561519
941,7,457,40,1,1.053384032
942,7,462,120,1,1.387378031
943,7,464,40,1,1.170249877
944,7,470,160,1,0.893206408
945,7,471,80,1,0.785303847
946,7,472,120,1,1.056154814
947,7,478,120,1,1.631144776
948,7,482,80,1,0.586122682
949,7,483,120,1,1.516144596
950,7,484,80,1,0.728394526
951,7,488,160,1,1.336225429
952,7,489,40,1,0.707441907
953,7,490,120,1,2.245191521
954,7,492,40,1,1.274935663
955,7,495,80,1,0.810144604
956,7,496,0,1,0.611387553
957,7,500,120,1,1.321553198
958,7,501,80,1,0.942008696
959,7,505,120,1,0.732292874
960,7,518,160,1,2.426077434
961,7,521,40,1,1.125162142
962,7,526,0,1,1.005764377
963,7,529,40,1,1.019862978
964,7,535,160,1,1.225910924
965,7,542,80,1,0.816963613
966,7,546,160,1,1.290752965
967,7,554,40,1,0.687707294
968,7,559,80,1,1.597365533
969,7,562,120,1,1.512447546
970,7,569,160,1,0.909757066
971,8,4,40,1,1.227337888
972,8,8,160,1,3.146549816
973,8,13,80,1,1.307327691
974,8,14,40,1,1.171537536
975,8,16,160,1,2.065520331
976,8,20,160,1,3.793027609
977,8,25,80,1,1.404704347
978,8,26,80,1,1.726795073
979,8,30,160,1,2.330982169
980,8,37,40,1,1.248065504
981,8,40,120,1,1.976625591
982,8,42,80,1,2.08763662
983,8,46,0,1,0.85405627
984,8,55,160,1,2.074181301
985,8,58,80,1,0.880459648
986,8,59,120,1,1.535138559
987,8,61,80,1,1.084574466
988,8,71,0,1,0.968424108
989,8,72,120,1,1.038315768
990,8,73,40,1,0.931424079
991,8,86,80,1,1.19721558
992,8,87,40,1,1.076946977
993,8,91,120,1,1.224227961
994,8,93,120,1,1.288606867
995,8,95,120,1,1.103629694
996,8,99,120,1,1.926589616
997,8,105,0,1,0.814069573
998,8,113,120,1,2.067762702
999,8,115,40,1,1.007807637
1000,8,117,160,1,0.876434029
1001,8,118,160,1,1.124679316
1002,8,122,80,1,1.159773568
1003,8,125,40,1,0.705063878
1004,8,127,120,1,1.006085289
1005,8,130,160,1,1.76286227
1006,8,137,0,1,1.22477971
1007,8,140,160,1,1.52793482
1008,8,152,0,1,0.973929203
1009,8,153,40,1,0.68606408
1010,8,159,160,1,1.628171237
1011,8,164,0,1,0.671815963
1012,8,168,80,1,1.971604052
1013,8,170,80,1,0.916982686
1014,8,172,160,1,2.450148002
1015,8,175,40,1,1.026269179
1016,8,178,0,1,0.621102791
1017,8,182,120,1,1.692619066
1018,8,186,160,1,2.569573118
1019,8,188,40,1,0.835490067
1020,8,198,0,1,0.842475003
1021,8,202,160,1,2.18991812
1022,8,204,120,1,1.84035188
1023,8,205,80,1,1.346904496
1024,8,215,120,1,1.164965409
1025,8,220,40,1,0.759730099
1026,8,226,40,1,0.71486992
1027,8,231,40,1,1.130762417
1028,8,238,40,1,1.037972246
1029,8,239,40,1,0.844414331
1030,8,242,160,1,1.17027431
1031,8,253,80,1,0.975240201
1032,8,255,80,1,1.15930934
1033,8,259,40,1,1.072529335
1034,8,266,120,1,1.125840433
1035,8,270,80,1,1.371398085
1036,8,289,0,1,0.892607251
1037,8,296,80,1,1.15508388
1038,8,299,80,1,2.100407449
1039,8,301,40,1,1.077982647
1040,8,304,40,1,0.781499584
1041,8,311,120,1,1.149761486
1042,8,314,160,1,1.172594356
1043,8,325,40,1,0.93740033
1044,8,327,160,1,1.951483615
1045,8,328,40,1,0.740252579
1046,8,347,0,1,0.844153225
1047,8,351,40,1,0.8076218
1048,8,352,80,1,0.919601763
1049,8,355,0,1,1.02146389
1050,8,360,40,1,1.62437135
1051,8,363,40,1,0.693259431
1052,8,366,120,1,1.260380857
1053,8,370,0,1,0.780350501
1054,8,376,40,1,0.974030947
1055,8,378,160,1,1.512412903
1056,8,385,40,1,1.407147288
1057,8,386,0,1,0.855930321
1058,8,388,160,1,1.507574429
1059,8,401,80,1,0.850750514
1060,8,403,120,1,1.080995206
1061,8,418,80,1,0.977665637
1062,8,422,40,1,0.887928504
1063,8,425,160,1,1.373058074
1064,8,427,0,1,0.978478857
1065,8,429,80,1,2.030817373
1066,8,440,160,1,0.903177281
1067,8,441,40,1,0.750182974
1068,8,444,0,1,0.654429111
1069,8,446,80,1,0.872795327
1070,8,448,80,1,0.893451103
1071,8,453,40,1,0.852722298
1072,8,454,120,1,1.010043808
1073,8,456,80,1,1.215191378
1074,8,461,120,1,1.492861355
1075,8,464,120,1,0.930453321
1076,8,465,120,1,0.89740087
1077,8,468,80,1,0.802844226
1078,8,471,160,1,1.222969477
1079,8,472,40,1,0.899095868
1080,8,476,160,1,1.352966446
1081,8,483,160,1,1.406551778
1082,8,489,80,1,0.858182903
1083,8,490,80,1,0.826383832
1084,8,493,120,1,1.077639125
1085,8,500,160,1,1.560214894
1086,8,503,120,1,1.597616063
1087,8,507,80,1,1.241858414
1088,8,508,120,1,0.880617551
1089,8,510,160,1,1.455268733
1090,8,516,80,1,0.790862549
1091,8,533,40,1,1.599610092
1092,8,536,120,1,2.988125172
1093,8,537,40,1,0.889952071
1094,8,541,80,1,1.150615184
1095,8,550,120,1,1.136123466
1096,8,559,160,1,1.409489944
1097,8,566,160,1,1.914046708
1098,8,568,160,1,2.198064173
1099,8,569,0,1,0.687984445
1100,8,570,80,1,0.85551423
1101,8,572,120,1,1.261042737
1102,8,576,120,1,1.913139038
1103,9,11,40,1,1.160599186
1104,9,13,40,1,0.87285404
1105,9,16,80,1,1.28798656
1106,9,21,40,1,0.990622448
1107,9,22,0,1,0.811067225
1108,9,23,40,1,0.982374652
1109,9,26,80,1,2.189634405
1110,9,28,0,1,0.755740218
1111,9,50,160,1,2.339977543
1112,9,54,160,1,2.007431295
1113,9,55,160,1,1.4254192
1114,9,59,0,1,0.744168432
1115,9,63,80,1,1.358319837
1116,9,66,80,1,1.193744263
1117,9,70,0,1,0.775777144
1118,9,73,160,1,1.407255596
1119,9,77,40,1,0.739481662
1120,9,78,80,1,1.515997997
1121,9,82,160,1,1.86256736
1122,9,84,120,1,1.506893585
1123,9,85,120,1,1.123257458
1124,9,86,80,1,1.156468541
1125,9,88,160,1,1.135034555
1126,9,89,40,1,0.862818254
1127,9,92,120,1,2.388830886
1128,9,97,40,1,1.678480716
1129,9,101,80,1,1.174845114
1130,9,104,120,1,1.870784523
1131,9,120,120,1,1.561314382
1132,9,121,40,1,1.320821665
1133,9,126,0,1,0.771689896
1134,9,127,40,1,1.225541511
1135,9,128,80,1,1.190241585
1136,9,133,120,1,2.079346522
1137,9,136,80,1,1.189624924
1138,9,141,120,1,1.804309115
1139,9,144,40,1,0.810562518
1140,9,145,160,1,2.350547574
1141,9,146,120,1,1.083697064
1142,9,155,80,1,1.055750392
1143,9,156,120,1,2.079118237
1144,9,158,40,1,1.18927265
1145,9,160,160,1,2.218225088
1146,9,161,40,1,0.754241779
1147,9,173,120,1,2.090396826
1148,9,174,120,1,3.043191803
1149,9,176,160,1,3.361705821
1150,9,180,40,1,0.877153892
1151,9,188,160,1,2.19445428
1152,9,195,160,1,1.701566669
1153,9,200,40,1,0.987834892
1154,9,207,80,1,0.891590544
1155,9,208,80,1,0.910330696
1156,9,214,120,1,1.145673508
1157,9,215,80,1,0.999016843
1158,9,225,120,1,1.452796253
1159,9,236,120,1,0.971120131
1160,9,238,0,1,0.714645646
1161,9,247,160,1,2.239198129
1162,9,250,40,1,1.156239892
1163,9,252,120,1,1.581284209
1164,9,256,160,1,0.89423369
1165,9,258,160,1,2.743398973
1166,9,264,80,1,0.805356819
1167,9,275,0,1,0.773229543
1168,9,276,0,1,1.03463367
1169,9,277,80,1,1.492490118
1170,9,285,40,1,1.49169258
1171,9,288,80,1,1.923935895
1172,9,291,0,1,0.69781419
1173,9,292,120,1,1.304976648
1174,9,293,40,1,0.783198593
1175,9,299,80,1,1.358882527
1176,9,327,160,1,1.691688787
1177,9,341,40,1,0.958673497
1178,9,350,80,1,1.323869598
1179,9,351,120,1,1.254925722
1180,9,353,40,1,1.338881338
1181,9,355,40,1,0.858274436
1182,9,356,80,1,1.028268678
1183,9,357,40,1,0.851992953
1184,9,361,80,1,1.552194289
1185,9,362,40,1,0.771879161
1186,9,363,40,1,1.37478808
1187,9,365,120,1,1.597127038
1188,9,366,40,1,1.03305245
1189,9,372,0,1,0.83088863
1190,9,377,120,1,1.44035436
1191,9,378,120,1,1.608505547
1192,9,381,40,1,1.129916742
1193,9,385,160,1,1.668074059
1194,9,386,160,1,1.741666414
1195,9,399,120,1,1.436388911
1196,9,401,0,1,0.888470407
1197,9,402,40,1,0.926176807
1198,9,410,80,1,1.007552731
1199,9,422,120,1,1.558864877
1200,9,430,80,1,0.97033718
1201,9,431,80,1,0.862544021
1202,9,436,0,1,1.478602663
1203,9,437,120,1,1.360034892
1204,9,453,120,1,0.990117377
1205,9,454,40,1,0.810925003
1206,9,460,80,1,1.236516328
1207,9,463,120,1,1.557526529
1208,9,465,80,1,0.80179944
1209,9,467,120,1,1.428536785
1210,9,470,80,1,0.993927475
1211,9,472,80,1,1.433899658
1212,9,474,80,1,1.14087843
1213,9,475,80,1,1.517540926
1214,9,490,160,1,2.845659687
1215,9,497,80,1,1.124196125
1216,9,499,0,1,0.739641753
1217,9,500,0,1,0.667825353
1218,9,504,40,1,1.177972181
1219,9,508,40,1,0.941939773
1220,9,513,0,1,0.68728865
1221,9,518,120,1,0.952954704
1222,9,520,120,1,1.242116967
1223,9,534,120,1,0.994797218
1224,9,536,120,1,1.769180585
1225,9,539,40,1,0.69937827
1226,9,542,80,1,1.03423873
1227,9,543,160,1,2.250249527
1228,9,544,40,1,0.682923885
1229,9,549,0,1,0.723576109
1230,9,557,80,1,1.056892911
1231,9,560,120,1,1.275616871
1232,9,569,160,1,1.429036021
1233,9,574,40,1,0.878244627
1234,9,575,160,1,1.624005219
1235,10,14,80,1,1.511656572
1236,10,16,80,1,1.841022512
1237,10,27,0,1,0.691951351
1238,10,36,40,1,1.3629654
1239,10,42,160,1,3.176660454
1240,10,44,80,1,0.875751727
1241,10,45,120,1,1.923015462
1242,10,50,120,1,1.373586119
1243,10,52,160,1,2.087535241
1244,10,54,80,1,1.151069566
1245,10,64,120,1,1.625695111
1246,10,68,120,1,1.08667899
1247,10,70,0,1,0.606089227
1248,10,71,80,1,1.272642967
1249,10,74,80,1,0.73694026
1250,10,76,40,1,0.692394793
1251,10,83,40,1,1.149858854
1252,10,88,40,1,0.871591544
1253,10,92,160,1,1.858555598
1254,10,96,120,1,1.261995261
1255,10,97,40,1,1.057916182
1256,10,105,80,1,1.395261155
1257,10,110,80,1,0.990996238
1258,10,112,40,1,1.207449383
1259,10,117,0,1,0.624895385
1260,10,120,120,1,1.570647443
1261,10,130,40,1,0.676163223
1262,10,131,40,1,0.610255975
1263,10,142,80,1,1.562393083
1264,10,143,120,1,2.091945954
1265,10,144,40,1,0.971951585
1266,10,149,160,1,1.274052061
1267,10,152,40,1,0.84927979
1268,10,157,0,1,0.593958399
1269,10,161,120,1,1.742916876
1270,10,164,160,1,1.82981394
1271,10,168,120,1,1.40142813
1272,10,184,80,1,1.204086738
1273,10,188,80,1,0.970007516
1274,10,192,80,1,1.200547227
1275,10,200,160,1,3.876227989
1276,10,209,0,1,0.728765763
1277,10,210,40,1,1.085341736
1278,10,213,0,1,0.70754365
1279,10,223,120,1,1.040096098
1280,10,225,40,1,0.758485836
1281,10,228,160,1,1.494151566
1282,10,229,80,1,1.009759364
1283,10,230,40,1,0.875868422
1284,10,234,80,1,1.029561441
1285,10,241,120,1,1.332920403
1286,10,246,160,1,2.875071613
1287,10,248,40,1,0.855521524
1288,10,257,120,1,1.640298419
1289,10,259,0,1,0.70598504
1290,10,260,0,1,0.588972962
1291,10,265,120,1,1.61449675
1292,10,266,80,1,1.861813217
1293,10,267,80,1,0.858715689
1294,10,272,40,1,0.626307396
1295,10,274,120,1,2.127916878
1296,10,275,160,1,1.384318429
1297,10,276,40,1,0.766750772
1298,10,277,160,1,1.729762048
1299,10,293,40,1,0.727145888
1300,10,294,120,1,1.081484961
1301,10,296,160,1,1.692161038
1302,10,307,80,1,0.890919182
1303,10,308,80,1,1.951923775
1304,10,309,80,1,0.949035204
1305,10,312,80,1,1.181435839
1306,10,316,0,1,0.627762439
1307,10,325,80,1,1.460756323
1308,10,326,120,1,1.537111802
1309,10,331,0,1,0.721334103
1310,10,334,80,1,1.319037323
1311,10,339,160,1,2.569425061
1312,10,341,120,1,1.877458394
1313,10,342,80,1,0.84824412
1314,10,343,80,1,0.845520017
1315,10,350,160,1,2.035917682
1316,10,355,120,1,2.088690888
1317,10,366,80,1,1.027383618
1318,10,368,0,1,0.627610371
1319,10,370,160,1,1.30687805
1320,10,371,80,1,1.04891716
1321,10,373,80,1,0.671157729
1322,10,379,120,1,2.526060768
1323,10,381,80,1,1.428330016
1324,10,383,120,1,1.291543575
1325,10,384,80,1,1.012160732
1326,10,391,160,1,1.511317427
1327,10,394,40,1,0.888374863
1328,10,400,120,1,2.179573457
1329,10,402,80,1,0.683364774
1330,10,403,40,1,0.725789306
1331,10,406,40,1,0.905868564
1332,10,408,40,1,0.889386099
1333,10,412,40,1,2.055304397
1334,10,413,120,1,1.145177918
1335,10,414,40,1,0.664614776
1336,10,432,80,1,1.178554563
1337,10,433,160,1,1.035922423
1338,10,434,120,1,1.325019045
1339,10,438,120,1,3.7610586
1340,10,439,120,1,1.088825452
1341,10,441,80,1,3.347090114
1342,10,442,0,1,0.632588514
1343,10,445,0,1,0.709641246
1344,10,454,40,1,0.698601153
1345,10,458,120,1,1.036692611
1346,10,460,120,1,3.076135581
1347,10,461,40,1,0.828854852
1348,10,477,160,1,1.530885749
1349,10,479,0,1,0.686215783
1350,10,486,40,1,1.185078188
1351,10,490,120,1,2.091299755
1352,10,493,0,1,0.556779315
1353,10,494,120,1,1.061759464
1354,10,499,120,1,1.248994689
1355,10,502,160,1,1.288218127
1356,10,504,40,1,0.885260925
1357,10,513,40,1,0.669933889
1358,10,524,160,1,1.261054771
1359,10,532,160,1,1.80933576
1360,10,544,160,1,1.370538917
1361,10,547,40,1,0.70998805
1362,10,549,40,1,0.712484597
1363,10,550,160,1,1.314282724
1364,10,551,40,1,1.206374693
1365,10,566,0,1,0.575490293
1366,10,570,40,1,0.773477155
1367,11,8,40,1,3.322982349
1368,11,15,120,1,3.011269837
1369,11,16,80,1,1.333381713
1370,11,21,80,1,1.466615515
1371,11,35,160,1,2.160719163
1372,11,38,40,1,1.904933179
1373,11,43,160,1,2.278643287
1374,11,44,160,1,2.992070198
1375,11,45,160,1,1.42333145
1376,11,51,160,1,2.169155131
1377,11,59,40,1,2.852880201
1378,11,60,120,1,2.58543564
1379,11,62,80,1,1.533485864
1380,11,63,40,1,1.595116963
1381,11,66,40,1,1.05667666
1382,11,67,160,1,2.380056867
1383,11,74,160,1,1.60817333
1384,11,76,160,1,2.030235356
1385,11,78,80,1,1.96772649
1386,11,86,80,1,1.632766474
1387,11,87,40,1,1.938743054
1388,11,95,80,1,2.091878125
1389,11,98,40,1,0.906762741
1390,11,104,0,1,1.82138709
1391,11,111,80,1,1.645264528
1392,11,114,0,1,0.781846023
1393,11,117,40,1,1.19875778
1394,11,123,80,1,1.561346108
1395,11,124,120,1,1.7570173
1396,11,127,120,1,1.82975304
1397,11,130,120,1,1.526207367
1398,11,131,120,1,1.895601212
1399,11,135,120,1,3.474772873
1400,11,141,80,1,1.310493413
1401,11,149,0,1,1.056372158
1402,11,152,80,1,0.975225614
1403,11,153,160,1,2.522582523
1404,11,156,0,1,0.967574057
1405,11,157,40,1,2.1789743
1406,11,159,80,1,1.816097516
1407,11,166,40,1,1.750301858
1408,11,168,0,1,0.873446997
1409,11,171,160,1,1.665920304
1410,11,177,120,1,1.596194206
1411,11,179,0,1,0.942328149
1412,11,181,40,1,1.221628211
1413,11,196,80,1,1.046494641
1414,11,202,160,1,3.036781955
1415,11,208,120,1,1.212636848
1416,11,211,40,1,1.422114903
1417,11,215,0,1,1.343250479
1418,11,217,120,1,1.15221172
1419,11,219,160,1,2.074714817
1420,11,220,160,1,1.740392614
1421,11,223,120,1,1.226428395
1422,11,228,40,1,0.925174687
1423,11,239,80,1,0.706908756
1424,11,241,120,1,2.330105861
1425,11,244,40,1,0.787226765
1426,11,248,80,1,1.856409136
1427,11,249,120,1,1.422311826
1428,11,255,40,1,1.039299289
1429,11,256,80,1,1.062388889
1430,11,262,120,1,1.482386869
1431,11,265,40,1,1.156184462
1432,11,267,120,1,1.566995613
1433,11,279,0,1,0.873522119
1434,11,294,160,1,1.673613069
1435,11,295,40,1,0.904110114
1436,11,303,120,1,1.761343045
1437,11,306,120,1,1.883068879
1438,11,307,0,1,0.948925438
1439,11,313,0,1,0.755490417
1440,11,317,80,1,0.743817982
1441,11,328,80,1,1.246187441
1442,11,329,40,1,0.990675691
1443,11,334,160,1,1.122136455
1444,11,339,40,1,1.24640515
1445,11,344,40,1,0.776286956
1446,11,345,160,1,1.358093741
1447,11,351,40,1,1.257934999
1448,11,355,120,1,3.25536187
1449,11,356,120,1,1.244561002
1450,11,359,120,1,1.379777893
1451,11,368,40,1,1.169146378
1452,11,371,120,1,1.676481947
1453,11,375,160,1,1.709979298
1454,11,378,120,1,1.091648017
1455,11,379,0,1,1.113390152
1456,11,382,40,1,1.574739068
1457,11,383,40,1,0.911229613
1458,11,386,160,1,1.457124915
1459,11,389,80,1,1.056177423
1460,11,392,120,1,1.024207685
1461,11,394,80,1,1.374287749
1462,11,396,0,1,0.776642512
1463,11,398,160,1,1.558334643
1464,11,406,160,1,1.987664226
1465,11,407,80,1,1.042434743
1466,11,415,160,1,1.614061696
1467,11,421,80,1,1.397835013
1468,11,428,40,1,1.143395035
1469,11,430,160,1,1.134960526
1470,11,436,80,1,1.006983112
1471,11,441,80,1,0.8562877
1472,11,442,120,1,3.223557693
1473,11,448,40,1,0.992073845
1474,11,449,120,1,1.608682778
1475,11,451,80,1,0.983533581
1476,11,455,0,1,0.771393052
1477,11,459,40,1,1.308587635
1478,11,464,160,1,1.888331467
1479,11,467,120,1,0.97766272
1480,11,475,120,1,1.193255238
1481,11,479,0,1,0.664017443
1482,11,484,0,1,0.643959365
1483,11,489,120,1,1.042764771
1484,11,490,80,1,1.07282399
1485,11,491,40,1,1.303339998
1486,11,495,120,1,1.807978449
1487,11,497,80,1,1.056054164
1488,11,499,40,1,0.748865413
1489,11,510,0,1,0.663682309
1490,11,515,80,1,1.045291587
1491,11,519,160,1,1.585867776
1492,11,526,40,1,2.469732371
1493,11,529,120,1,1.228578503
1494,11,533,80,1,1.685900706
1495,11,534,80,1,1.232537387
1496,11,536,120,1,2.452992812
1497,11,540,80,1,2.474273636
1498,11,541,40,1,0.743991931
1499,11,554,40,1,0.868673435
1500,11,557,80,1,3.600857637
1501,11,564,160,1,1.682220797
1502,11,568,160,1,1.303528899
1503,11,573,160,1,3.554301001
1504,12,21,160,1,3.799926482
1505,12,22,120,1,2.586424996
1506,12,24,160,1,3.385498874
1507,12,26,40,1,2.136930122
1508,12,35,120,1,2.338725988
1509,12,36,0,1,0.932244956
1510,12,42,160,1,3.847992861
1511,12,50,40,1,2.33791131
1512,12,53,80,1,2.307884182
1513,12,55,40,1,1.252694291
1514,12,57,120,1,1.822993837
1515,12,58,40,1,1.400089418
1516,12,61,120,1,2.556261845
1517,12,63,80,1,1.26149566
1518,12,71,40,1,1.25921354
1519,12,72,80,1,2.639057074
1520,12,73,40,1,1.67255953
1521,12,88,80,1,1.47936884
1522,12,100,0,1,0.837122705
1523,12,106,0,1,1.107595142
1524,12,110,80,1,2.495335293
1525,12,114,80,1,2.826900572
1526,12,117,40,1,1.46592045
1527,12,118,80,1,1.373023065
1528,12,119,160,1,3.224872337
1529,12,125,40,1,2.045880897
1530,12,129,0,1,0.779628085
1531,12,133,80,1,1.587573349
1532,12,134,40,1,1.088425406
1533,12,138,40,1,1.955732049
1534,12,151,160,1,2.988786687
1535,12,154,120,1,1.895401371
1536,12,160,120,1,1.478343745
1537,12,162,80,1,1.071137016
1538,12,163,120,1,2.129588901
1539,12,164,160,1,2.278643652
1540,12,168,120,1,1.488301491
1541,12,169,80,1,1.16120199
1542,12,172,40,1,0.707997303
1543,12,175,0,1,0.539897899
1544,12,179,160,1,3.065327784
1545,12,181,40,1,0.897738557
1546,12,182,160,1,1.861427758
1547,12,190,0,1,0.623054154
1548,12,195,80,1,1.002437106
1549,12,197,160,1,1.701628663
1550,12,198,120,1,2.024453839
1551,12,201,120,1,1.797894892
1552,12,206,40,1,1.014455615
1553,12,211,0,1,0.905199755
1554,12,214,120,1,1.82921296
1555,12,215,160,1,2.528431504
1556,12,218,120,1,1.119409435
1557,12,220,0,1,0.795984738
1558,12,223,40,1,1.203269507
1559,12,224,120,1,1.999165265
1560,12,225,120,1,1.523303845
1561,12,240,80,1,1.260821746
1562,12,244,160,1,3.499294906
1563,12,245,120,1,1.861870106
1564,12,255,40,1,1.308669686
1565,12,263,80,1,0.951531752
1566,12,270,40,1,0.920025148
1567,12,272,80,1,1.628739397
1568,12,273,80,1,0.927232169
1569,12,281,160,1,1.401540814
1570,12,283,80,1,1.123563419
1571,12,295,160,1,2.27213279
1572,12,298,160,1,2.727919722
1573,12,301,40,1,0.79276468
1574,12,307,40,1,1.186073743
1575,12,310,0,1,0.75936652
1576,12,321,160,1,1.984899279
1577,12,323,40,1,0.997575658
1578,12,325,160,1,1.996996558
1579,12,326,40,1,0.978768042
1580,12,330,160,1,1.645252858
1581,12,331,120,1,2.46638249
1582,12,334,80,1,1.090758945
1583,12,335,160,1,1.832964346
1584,12,337,80,1,0.947421529
1585,12,339,120,1,1.355842618
1586,12,343,0,1,0.778985897
1587,12,354,80,1,1.008937757
1588,12,356,80,1,0.841383173
1589,12,361,120,1,2.821723318
1590,12,366,40,1,0.894542568
1591,12,367,120,1,1.553209537
1592,12,369,120,1,1.509505369
1593,12,372,80,1,1.041243358
1594,12,375,40,1,0.825414532
1595,12,382,80,1,1.107146595
1596,12,389,120,1,1.670083404
1597,12,390,0,1,0.709765235
1598,12,393,80,1,0.998573037
1599,12,394,80,1,1.394885542
1600,12,406,40,1,1.026724654
1601,12,407,80,1,1.953117712
1602,12,412,120,1,1.792061227
1603,12,416,120,1,2.203763274
1604,12,418,120,1,1.656215276
1605,12,422,0,1,0.702822966
1606,12,425,160,1,1.780456621
1607,12,429,120,1,2.190533687
1608,12,430,80,1,1.291218287
1609,12,433,120,1,1.40270813
1610,12,441,120,1,1.280181476
1611,12,443,160,1,1.904245407
1612,12,448,80,1,1.314891727
1613,12,455,40,1,1.226650845
1614,12,457,0,1,0.941444548
1615,12,461,80,1,1.223681317
1616,12,463,120,1,2.220453237
1617,12,466,160,1,1.844462103
1618,12,477,80,1,1.630469403
1619,12,489,40,1,0.920087142
1620,12,491,0,1,0.650642717
1621,12,495,120,1,1.924299838
1622,12,496,120,1,1.115815953
1623,12,497,160,1,2.554524181
1624,12,498,80,1,1.062597482
1625,12,510,120,1,1.542790116
1626,12,519,80,1,0.97669962
1627,12,530,0,1,0.709532939
1628,12,531,40,1,1.798689878
1629,12,542,80,1,1.513304162
1630,12,543,40,1,0.907981111
1631,12,548,160,1,2.992686859
1632,12,552,40,1,0.850723528
1633,12,554,40,1,0.883359523
1634,12,558,40,1,0.623973493
1635,12,561,0,1,0.777601236
1636,12,564,40,1,1.042230526
1637,12,565,40,1,1.582097063
1638,13,4,40,1,0.818649129
1639,13,12,120,1,0.892574066
1640,13,22,160,1,1.712095856
1641,13,34,80,1,1.086166625
1642,13,36,40,1,1.795672213
1643,13,46,160,1,2.670566595
1644,13,50,120,1,1.592224381
1645,13,52,80,1,1.674505787
1646,13,60,80,1,1.228085466
1647,13,63,0,1,0.788586263
1648,13,68,0,1,0.825662874
1649,13,71,40,1,0.678463212
1650,13,75,40,1,0.773023138
1651,13,78,120,1,1.156419311
1652,13,79,80,1,0.992459303
1653,13,89,0,1,0.6885351
1654,13,93,120,1,1.336583173
1655,13,101,40,1,0.751438906
1656,13,108,120,1,1.00732007
1657,13,118,40,1,0.783694183
1658,13,122,80,1,1.027462387
1659,13,123,120,1,1.323771136
1660,13,124,120,1,1.473972782
1661,13,127,120,1,1.197369472
1662,13,130,80,1,1.463327629
1663,13,133,160,1,1.27862943
1664,13,135,80,1,1.039618378
1665,13,137,80,1,0.988696249
1666,13,139,40,1,1.070154953
1667,13,147,120,1,1.113671679
1668,13,150,160,1,2.16478599
1669,13,153,160,1,1.610552818
1670,13,154,80,1,1.20763646
1671,13,161,80,1,0.885469518
1672,13,162,0,1,0.735915895
1673,13,167,160,1,1.179480101
1674,13,172,160,1,1.207666363
1675,13,182,120,1,1.325801632
1676,13,183,0,1,0.695154999
1677,13,186,0,1,0.650209121
1678,13,188,80,1,0.828712994
1679,13,196,40,1,2.858609934
1680,13,197,40,1,0.604072224
1681,13,199,40,1,0.81518073
1682,13,206,80,1,1.526329167
1683,13,207,160,1,3.147188722
1684,13,208,80,1,1.272562374
1685,13,211,0,1,0.725531847
1686,13,218,160,1,1.390121826
1687,13,221,40,1,0.772601577
1688,13,230,160,1,1.322240241
1689,13,235,80,1,0.708941075
1690,13,239,40,1,0.914828566
1691,13,242,40,1,0.742687862
1692,13,248,120,1,0.948157438
1693,13,250,120,1,1.154109475
1694,13,251,160,1,1.292721466
1695,13,252,0,1,0.588227936
1696,13,256,40,1,0.822626976
1697,13,261,160,1,1.406680143
1698,13,262,160,1,1.357914686
1699,13,263,120,1,1.12805363
1700,13,266,40,1,0.974802229
1701,13,268,160,1,1.473616132
1702,13,282,40,1,1.207399787
1703,13,287,80,1,1.10556027
1704,13,289,80,1,0.94507705
1705,13,291,0,1,0.879197516
1706,13,297,160,1,1.655061088
1707,13,298,160,1,1.448683478
1708,13,308,120,1,1.49139683
1709,13,309,40,1,0.924391736
1710,13,320,80,1,1.760311751
1711,13,321,0,1,0.687853527
1712,13,325,80,1,0.684450039
1713,13,326,160,1,3.293618196
1714,13,330,0,1,0.722965647
1715,13,332,80,1,1.227871403
1716,13,341,160,1,1.285061887
1717,13,348,80,1,1.281006
1718,13,350,120,1,1.326067114
1719,13,352,80,1,0.889650852
1720,13,364,40,1,0.763115717
1721,13,366,160,1,1.183858723
1722,13,371,160,1,2.458396528
1723,13,372,80,1,0.882848617
1724,13,373,120,1,0.889406886
1725,13,376,40,1,0.689913562
1726,13,379,0,1,0.738841662
1727,13,384,40,1,0.98145823
1728,13,391,160,1,1.271562443
1729,13,403,40,1,0.923022755
1730,13,407,80,1,0.811646689
1731,13,412,120,1,1.080807764
1732,13,423,120,1,1.109112179
1733,13,424,120,1,0.875904889
1734,13,426,40,1,1.160274628
1735,13,432,80,1,1.509625711
1736,13,433,160,1,1.375629014
1737,13,437,80,1,0.79284892
1738,13,448,40,1,0.72127065
1739,13,459,0,1,0.694807466
1740,13,463,160,1,1.331770955
1741,13,465,120,1,0.933160284
1742,13,467,120,1,1.458136152
1743,13,472,40,1,0.63984039
1744,13,473,40,1,0.989064932
1745,13,475,80,1,1.039937466
1746,13,481,80,1,0.896756494
1747,13,482,40,1,1.194135557
1748,13,484,160,1,2.712848176
1749,13,485,120,1,0.967513521
1750,13,490,80,1,1.486296522
1751,13,512,80,1,0.911980474
1752,13,514,120,1,0.856661854
1753,13,515,40,1,0.639897279
1754,13,526,0,1,0.992509264
1755,13,530,160,1,1.288350138
1756,13,531,80,1,0.907746262
1757,13,532,0,1,0.680211816
1758,13,533,40,1,0.576080698
1759,13,547,40,1,0.62352604
1760,13,548,120,1,0.875483692
1761,13,549,120,1,1.021565998
1762,13,550,0,1,0.536836109
1763,13,556,120,1,0.82347484
1764,13,561,80,1,0.74379756
1765,13,564,40,1,0.575669347
1766,13,565,160,1,1.239880431
1767,13,571,40,1,0.802201309
1768,13,573,120,1,0.762065096
1769,13,574,40,1,0.60979357
1770,14,2,0,1,0.823355056
1771,14,15,80,1,3.595870819
1772,14,16,80,1,1.926582038
1773,14,18,0,1,0.769936073
1774,14,19,160,1,2.188353105
1775,14,26,160,1,1.795082033
1776,14,29,0,1,0.641058789
1777,14,31,40,1,0.737961994
1778,14,33,40,1,0.815425992
1779,14,37,80,1,1.11114693
1780,14,38,120,1,1.356414034
1781,14,43,80,1,1.644939629
1782,14,48,80,1,0.977662015
1783,14,49,120,1,1.080868576
1784,14,58,120,1,2.279026617
1785,14,64,40,1,0.696265758
1786,14,67,120,1,1.292322924
1787,14,68,120,1,1.137944125
1788,14,70,160,1,2.879192908
1789,14,72,160,1,0.939085913
1790,14,76,160,1,1.681651162
1791,14,83,160,1,1.500897823
1792,14,89,120,1,2.062299841
1793,14,91,80,1,1.17985807
1794,14,93,160,1,1.094539766
1795,14,101,40,1,1.145383799
1796,14,106,40,1,0.922697917
1797,14,113,0,1,0.787484821
1798,14,115,160,1,3.126931394
1799,14,120,80,1,0.763605367
1800,14,123,160,1,1.257580255
1801,14,124,120,1,1.513688329
1802,14,135,40,1,1.112903555
1803,14,137,40,1,0.709890635
1804,14,140,120,1,0.845076745
1805,14,144,160,1,1.786719374
1806,14,150,120,1,1.216844931
1807,14,156,0,1,0.626289936
1808,14,157,120,1,1.282144563
1809,14,164,80,1,2.265736145
1810,14,168,0,1,0.686759488
1811,14,169,0,1,0.585962315
1812,14,171,120,1,1.393005955
1813,14,172,80,1,0.838487486
1814,14,174,40,1,0.799617824
1815,14,175,120,1,1.207697133
1816,14,178,80,1,0.974569596
1817,14,188,80,1,0.807154501
1818,14,189,80,1,1.28126461
1819,14,198,40,1,0.65231038
1820,14,201,40,1,0.6833323
1821,14,202,40,1,0.901772306
1822,14,205,40,1,0.736145198
1823,14,207,80,1,0.756526353
1824,14,208,80,1,3.198253221
1825,14,223,160,1,2.797756538
1826,14,227,120,1,1.076459326
1827,14,229,40,1,0.701390859
1828,14,234,120,1,0.981615789
1829,14,241,0,1,0.684831467
1830,14,246,160,1,1.875711384
1831,14,247,80,1,1.377412944
1832,14,251,160,1,1.697523512
1833,14,253,80,1,0.772767022
1834,14,255,120,1,1.232283686
1835,14,257,40,1,0.786491454
1836,14,268,40,1,0.767975961
1837,14,271,40,1,1.272115353
1838,14,273,120,1,0.862922336
1839,14,280,160,1,1.874233004
1840,14,289,160,1,1.980846331
1841,14,292,40,1,0.581563641
1842,14,298,80,1,0.576702198
1843,14,301,40,1,0.610685985
1844,14,307,80,1,1.85868667
1845,14,313,160,1,3.404352725
1846,14,316,40,1,1.41302645
1847,14,320,80,1,0.92014266
1848,14,323,160,1,1.683541987
1849,14,341,120,1,1.186488537
1850,14,348,160,1,2.252336636
1851,14,351,0,1,0.751724352
1852,14,353,120,1,0.822205245
1853,14,355,160,1,1.450483373
1854,14,356,40,1,0.744042171
1855,14,358,120,1,1.562590484
1856,14,360,160,1,2.70835646
1857,14,367,120,1,1.011723841
1858,14,371,120,1,0.676476466
1859,14,372,40,1,0.875915236
1860,14,373,0,1,0.647334065
1861,14,381,0,1,0.726237059
1862,14,383,40,1,0.824098987
1863,14,386,0,1,0.674299739
1864,14,387,120,1,2.238752603
1865,14,391,120,1,2.856650342
1866,14,392,0,1,0.705703106
1867,14,395,160,1,1.060163592
1868,14,398,40,1,0.770960437
1869,14,400,40,1,0.733792334
1870,14,401,120,1,1.012548729
1871,14,406,160,1,1.982487355
1872,14,407,120,1,0.823257324
1873,14,408,120,1,0.963843497
1874,14,410,120,1,1.278474869
1875,14,411,120,1,1.284891638
1876,14,419,80,1,0.753146937
1877,14,422,80,1,0.728350333
1878,14,425,160,1,1.302785
1879,14,435,160,1,0.854463403
1880,14,446,160,1,1.024738986
1881,14,453,120,1,1.008113223
1882,14,458,80,1,0.81404352
1883,14,461,160,1,0.985846349
1884,14,471,80,1,1.445252517
1885,14,478,80,1,1.154001364
1886,14,479,120,1,0.852548875
1887,14,483,80,1,1.44805721
1888,14,488,80,1,0.620470135
1889,14,491,0,1,0.638692432
1890,14,493,80,1,0.63706563
1891,14,494,120,1,0.889243634
1892,14,496,160,1,1.298206543
1893,14,501,160,1,1.154702264
1894,14,507,80,1,0.840378675
1895,14,513,160,1,0.978157604
1896,14,516,40,1,0.69849354
1897,14,518,40,1,0.699400479
1898,14,521,40,1,0.62486261
1899,14,524,80,1,0.694714444
1900,14,525,80,1,0.856331983
1901,14,528,40,1,0.729645648
1902,14,532,120,1,0.875591042
1903,14,545,80,1,0.737058337
1904,14,562,0,1,0.529958901
1905,14,564,160,1,0.81164726
1906,14,567,80,1,1.179976223
1907,14,568,40,1,1.82025899
1908,14,574,0,1,0.707313133
1909,15,6,40,1,0.899641418
1910,15,7,160,1,1.449514202
1911,15,16,80,1,1.83239728
1912,15,23,80,1,1.026462455
1913,15,28,160,1,0.90115809
1914,15,31,0,1,0.734112225
1915,15,35,160,1,1.115940671
1916,15,37,120,1,0.87541951
1917,15,38,80,1,1.086933896
1918,15,39,40,1,1.661230981
1919,15,40,120,1,1.221894058
1920,15,42,40,1,0.599484645
1921,15,52,160,1,1.673226881
1922,15,54,120,1,0.983246949
1923,15,60,80,1,0.994665936
1924,15,63,80,1,0.625932513
1925,15,66,120,1,0.8653943
1926,15,72,120,1,0.883921848
1927,15,82,120,1,1.101796121
1928,15,89,40,1,0.550330813
1929,15,97,160,1,1.06140245
1930,15,103,160,1,1.344556006
1931,15,104,40,1,1.19544546
1932,15,108,160,1,0.726599973
1933,15,114,80,1,0.827132139
1934,15,115,120,1,0.850266594
1935,15,118,80,1,0.695393494
1936,15,119,40,1,1.020192277
1937,15,121,80,1,1.036286001
1938,15,128,40,1,0.761625666
1939,15,129,120,1,1.089950102
1940,15,140,160,1,1.140689165
1941,15,156,40,1,0.639396949
1942,15,159,80,1,1.030785647
1943,15,160,0,1,0.498434279
1944,15,169,160,1,1.174103371
1945,15,171,80,1,1.721191881
1946,15,175,40,1,0.639193461
1947,15,177,40,1,1.672469821
1948,15,180,80,1,0.990605309
1949,15,181,120,1,0.876908103
1950,15,184,40,1,1.068262303
1951,15,188,80,1,0.766487843
1952,15,189,120,1,0.805989891
1953,15,192,0,1,0.505348104
1954,15,199,160,1,0.723728542
1955,15,215,120,1,0.707870032
1956,15,220,40,1,0.635301677
1957,15,223,0,1,1.421888077
1958,15,231,40,1,1.02216005
1959,15,232,120,1,1.272731947
1960,15,235,160,1,1.602344406
1961,15,236,0,1,0.6660855
1962,15,239,160,1,1.212599651
1963,15,240,160,1,0.804538494
1964,15,242,120,1,0.782968849
1965,15,245,80,1,0.66839643
1966,15,246,160,1,1.074326076
1967,15,253,160,1,1.153785646
1968,15,254,40,1,0.608203963
1969,15,255,0,1,0.433446734
1970,15,258,40,1,0.673981753
1971,15,265,80,1,0.833713018
1972,15,268,80,1,0.72605734
1973,15,271,120,1,0.573075432
1974,15,272,160,1,0.889880595
1975,15,279,80,1,0.774597794
1976,15,283,40,1,0.596081886
1977,15,284,120,1,0.922568009
1978,15,285,0,1,0.591724416
1979,15,288,0,1,0.528616028
1980,15,290,80,1,1.320379318
1981,15,295,120,1,0.82428113
1982,15,308,120,1,0.789402036
1983,15,312,80,1,0.953708482
1984,15,313,80,1,0.67254859
1985,15,315,160,1,0.884441141
1986,15,323,40,1,0.571841745
1987,15,324,160,1,1.3980323
1988,15,327,120,1,0.759736298
1989,15,332,120,1,0.963015287
1990,15,351,0,1,0.607081136
1991,15,353,40,1,1.109402823
1992,15,354,80,1,1.038767232
1993,15,358,40,1,1.293678732
1994,15,367,40,1,0.578936083
1995,15,370,160,1,1.721958058
1996,15,372,120,1,0.685520353
1997,15,375,120,1,1.584569542
1998,15,376,80,1,1.138089051
1999,15,380,40,1,0.590376222
2000,15,385,120,1,1.424165092
2001,15,388,160,1,0.900095799
2002,15,395,0,1,0.714486649
2003,15,398,120,1,1.568951716
2004,15,405,0,1,0.588424495
2005,15,410,160,1,0.768330533
2006,15,418,120,1,0.622992889
2007,15,419,0,1,0.492519292
2008,15,423,80,1,1.109364897
2009,15,425,80,1,1.109285399
2010,15,426,80,1,0.68292425
2011,15,438,40,1,0.614427462
2012,15,442,160,1,0.904659675
2013,15,445,160,1,0.855747985
2014,15,446,120,1,0.673762949
2015,15,448,80,1,0.568320833
2016,15,458,120,1,0.690941573
2017,15,459,160,1,1.077178909
2018,15,460,0,1,0.523171104
2019,15,463,40,1,1.934440284
2020,15,465,40,1,0.916347791
2021,15,467,160,1,1.308818837
2022,15,468,40,1,0.731382652
2023,15,471,160,1,1.003147852
2024,15,476,40,1,0.619204671
2025,15,491,40,1,0.586486261
2026,15,494,0,1,0.637041894
2027,15,496,80,1,0.628338257
2028,15,501,80,1,0.652916814
2029,15,502,0,1,0.527032256
2030,15,504,40,1,0.620150996
2031,15,505,80,1,1.23683724
2032,15,513,120,1,0.819988206
2033,15,517,0,1,0.738827804
2034,15,518,120,1,0.58992111
2035,15,533,120,1,0.834676847
2036,15,534,160,1,1.641809621
2037,15,536,80,1,0.806231304
2038,15,540,160,1,1.436700342
2039,15,543,80,1,0.839107617
2040,15,544,160,1,0.875119385
2041,15,546,40,1,0.637661472
2042,15,553,40,1,0.518568573
2043,15,558,120,1,0.690792058
2044,15,559,120,1,0.632181904
2045,15,560,80,1,0.554422073
2046,15,562,40,1,0.477130845
2047,15,573,80,1,0.887767319
2048,16,4,40,1,1.19053004
2049,16,9,120,1,0.726991631
2050,16,21,40,1,2.474506662
2051,16,31,80,1,2.113806243
2052,16,43,40,1,1.080974784
2053,16,44,40,1,0.691222006
2054,16,50,0,1,0.692639853
2055,16,56,160,1,0.576941689
2056,16,57,80,1,2.566697311
2057,16,70,40,1,0.647777486
2058,16,72,160,1,1.75730211
2059,16,74,40,1,1.137147102
2060,16,75,80,1,0.851750811
2061,16,78,40,1,0.974315756
2062,16,82,160,1,1.525449213
2063,16,84,40,1,0.938372182
2064,16,87,120,1,2.124266142
2065,16,89,0,1,0.616218369
2066,16,95,0,1,0.741519816
2067,16,106,0,1,0.634249962
2068,16,111,80,1,0.7720243
2069,16,114,80,1,0.697965529
2070,16,116,80,1,0.893990454
2071,16,119,160,1,1.14663989
2072,16,121,160,1,1.812807077
2073,16,122,120,1,1.994889116
2074,16,124,120,1,0.716419048
2075,16,131,0,1,0.676132226
2076,16,140,40,1,0.654348883
2077,16,144,80,1,1.034090673
2078,16,160,120,1,0.67424614
2079,16,162,120,1,0.811344376
2080,16,163,40,1,1.377675556
2081,16,170,160,1,0.723526149
2082,16,177,40,1,0.89400577
2083,16,184,120,1,1.147355013
2084,16,193,40,1,1.240340283
2085,16,195,80,1,1.095593772
2086,16,197,160,1,1.027321623
2087,16,199,40,1,0.690579818
2088,16,201,80,1,0.872591111
2089,16,203,80,1,1.04421872
2090,16,210,120,1,0.737441684
2091,16,225,160,1,1.992962551
2092,16,228,120,1,1.576816971
2093,16,229,0,1,0.563277413
2094,16,233,80,1,1.108242436
2095,16,243,120,1,0.884969552
2096,16,245,0,1,0.740422517
2097,16,248,80,1,1.027155697
2098,16,263,160,1,0.697246395
2099,16,264,40,1,0.623034826
2100,16,272,0,1,0.660562172
2101,16,273,40,1,0.61144116
2102,16,275,80,1,0.597900873
2103,16,282,120,1,1.060299681
2104,16,283,40,1,0.69113959
2105,16,290,80,1,0.640169689
2106,16,292,40,1,0.532881966
2107,16,293,80,1,0.530391253
2108,16,296,160,1,1.001563715
2109,16,301,160,1,0.497077697
2110,16,305,160,1,1.069665927
2111,16,306,40,1,0.639977507
2112,16,310,40,1,0.521370351
2113,16,311,0,1,0.420016578
2114,16,322,0,1,0.607225182
2115,16,330,160,1,0.992153708
2116,16,336,160,1,0.80685927
2117,16,337,0,1,0.43265503
2118,16,341,0,1,0.5264878
2119,16,351,40,1,0.555987611
2120,16,352,40,1,0.535602787
2121,16,355,160,1,0.777760233
2122,16,366,120,1,0.739124648
2123,16,370,160,1,0.826245621
2124,16,374,80,1,0.657318046
2125,16,383,160,1,1.276110273
2126,16,388,120,1,0.598769158
2127,16,391,120,1,0.901522763
2128,16,393,80,1,0.82229403
2129,16,394,80,1,0.579235479
2130,16,395,0,1,0.534985397
2131,16,399,40,1,0.844131709
2132,16,410,160,1,0.73965634
2133,16,422,80,1,1.445511557
2134,16,431,160,1,1.245800159
2135,16,443,40,1,0.640653974
2136,16,448,40,1,0.695193289
2137,16,459,120,1,0.677417331
2138,16,462,40,1,0.527518729
2139,16,468,160,1,1.341338866
2140,16,470,120,1,0.943854668
2141,16,472,80,1,0.761125335
2142,16,475,120,1,0.725052668
2143,16,479,40,1,0.544220726
2144,16,483,40,1,0.610335108
2145,16,487,80,1,0.771422226
2146,16,492,80,1,0.602321432
2147,16,494,40,1,0.725982218
2148,16,498,0,1,0.625112
2149,16,504,120,1,0.904698695
2150,16,514,160,1,0.990267622
2151,16,523,120,1,1.186972296
2152,16,537,120,1,0.604192931
2153,16,540,40,1,0.540128007
2154,16,541,0,1,0.465316187
2155,16,546,40,1,0.638636971
2156,16,547,0,1,0.548494687
2157,16,552,120,1,0.645726568
2158,16,558,120,1,0.809162541
2159,16,563,120,1,1.087078306
2160,16,567,160,1,0.723584132
2161,16,568,40,1,0.919641512
2162,16,569,80,1,0.811365527
2163,16,570,40,1,0.701019296
2164,16,572,120,1,0.772455708
2165,16,573,80,1,0.804150847
2166,17,7,160,1,1.673598846
2167,17,15,0,1,1.191027454
2168,17,22,160,1,2.440118781
2169,17,27,40,1,1.432056603
2170,17,34,40,1,1.21929139
2171,17,45,160,1,1.47216583
2172,17,50,80,1,2.725533306
2173,17,52,40,1,2.106275028
2174,17,64,120,1,1.67091741
2175,17,66,120,1,2.263781427
2176,17,81,120,1,2.245544523
2177,17,84,80,1,2.131861904
2178,17,90,80,1,1.42629879
2179,17,91,40,1,1.231751153
2180,17,92,120,1,2.141055296
2181,17,95,120,1,3.088236141
2182,17,103,40,1,2.104033022
2183,17,110,40,1,1.438398257
2184,17,111,40,1,1.410274719
2185,17,114,80,1,2.422353764
2186,17,116,40,1,1.450299706
2187,17,124,80,1,2.170271393
2188,17,125,160,1,3.191563522
2189,17,128,40,1,0.949050885
2190,17,142,0,1,1.873376615
2191,17,143,120,1,1.974587437
2192,17,144,0,1,1.067370679
2193,17,151,40,1,1.440948046
2194,17,152,40,1,1.7721585
2195,17,165,80,1,1.376455727
2196,17,169,0,1,1.237650824
2197,17,176,120,1,1.231841957
2198,17,177,80,1,2.541131586
2199,17,181,120,1,2.191158006
2200,17,186,120,1,2.140785803
2201,17,187,80,1,2.206961816
2202,17,188,40,1,1.705096698
2203,17,192,0,1,0.756986668
2204,17,196,0,1,0.619320637
2205,17,205,40,1,0.73555961
2206,17,207,160,1,1.206402043
2207,17,213,80,1,1.625032866
2208,17,219,40,1,0.806900113
2209,17,220,160,1,1.207615673
2210,17,232,80,1,1.566846827
2211,17,247,160,1,2.088330956
2212,17,262,120,1,2.070784013
2213,17,265,80,1,1.189853573
2214,17,278,80,1,1.774442079
2215,17,281,40,1,0.730794071
2216,17,287,120,1,1.538451973
2217,17,298,0,1,0.969809134
2218,17,299,0,1,0.661250309
2219,17,301,0,1,0.742641549
2220,17,302,80,1,2.517849074
2221,17,307,160,1,3.55481446
2222,17,310,160,1,3.741543155
2223,17,311,40,1,0.750839385
2224,17,314,120,1,1.888473324
2225,17,315,0,1,0.765656026
2226,17,320,40,1,0.991276671
2227,17,322,0,1,1.001030929
2228,17,332,160,1,1.825093256
2229,17,340,40,1,0.922274447
2230,17,341,40,1,0.835188118
2231,17,345,40,1,0.699562065
2232,17,347,160,1,2.232432726
2233,17,354,0,1,0.652544848
2234,17,355,80,1,1.361341878
2235,17,358,160,1,1.887283763
2236,17,361,40,1,0.804277753
2237,17,368,120,1,1.581697747
2238,17,372,120,1,1.056803566
2239,17,374,80,1,1.497331509
2240,17,380,40,1,0.844320245
2241,17,381,40,1,0.99614286
2242,17,386,80,1,0.846199402
2243,17,387,160,1,1.356281683
2244,17,388,120,1,1.435374028
2245,17,389,120,1,1.633591363
2246,17,390,160,1,2.804589184
2247,17,398,120,1,1.928963269
2248,17,399,120,1,1.019275855
2249,17,411,80,1,1.794170128
2250,17,415,160,1,1.185333094
2251,17,416,160,1,2.074439489
2252,17,425,40,1,0.861563416
2253,17,433,40,1,0.78629065
2254,17,437,80,1,0.802052887
2255,17,438,80,1,1.130698235
2256,17,439,160,1,1.455863878
2257,17,440,120,1,0.900839367
2258,17,442,80,1,1.154140837
2259,17,447,120,1,1.092240245
2260,17,452,40,1,0.823100686
2261,17,458,120,1,1.372270746
2262,17,459,80,1,1.200701119
2263,17,466,40,1,0.898887275
2264,17,468,120,1,1.143699536
2265,17,470,120,1,1.462721543
2266,17,491,120,1,2.356316327
2267,17,495,120,1,1.301608898
2268,17,505,80,1,0.865592317
2269,17,506,80,1,1.448824606
2270,17,509,120,1,0.954116185
2271,17,510,40,1,0.77801441
2272,17,527,120,1,1.14025557
2273,17,536,0,1,0.839404461
2274,17,540,80,1,1.359160407
2275,17,544,80,1,0.67281006
2276,17,548,160,1,1.861095542
2277,17,550,80,1,0.723301511
2278,17,553,160,1,2.115832728
2279,17,554,40,1,0.644590978
2280,17,556,80,1,0.677987679
2281,17,557,40,1,0.879189494
2282,17,559,40,1,1.067368856
2283,17,574,0,1,0.787887551
2284,18,4,160,1,3.390093382
2285,18,6,80,1,2.405181704
2286,18,8,40,1,2.160254571
2287,18,10,120,1,2.218501145
2288,18,15,40,1,1.035614639
2289,18,22,120,1,2.75338261
2290,18,36,40,1,2.688787453
2291,18,38,40,1,1.271814796
2292,18,60,80,1,1.213295446
2293,18,72,80,1,2.096725716
2294,18,73,80,1,1.379813995
2295,18,75,0,1,0.772551981
2296,18,76,120,1,2.518621086
2297,18,86,80,1,2.735530071
2298,18,96,80,1,1.803493708
2299,18,100,40,1,1.0358473
2300,18,108,40,1,1.393511456
2301,18,111,160,1,2.464717031
2302,18,118,40,1,0.855227233
2303,18,119,40,1,1.565354587
2304,18,120,120,1,1.699158372
2305,18,121,120,1,2.762916606
2306,18,122,40,1,0.816998257
2307,18,123,0,1,0.757722212
2308,18,129,160,1,3.024505987
2309,18,130,80,1,1.171941593
2310,18,135,40,1,1.208847537
2311,18,136,160,1,3.673507678
2312,18,158,40,1,0.755919272
2313,18,159,120,1,1.443930702
2314,18,166,160,1,1.325846122
2315,18,168,40,1,0.78951399
2316,18,170,40,1,0.752307556
2317,18,181,0,1,0.858189467
2318,18,189,120,1,1.157425806
2319,18,197,40,1,3.250336684
2320,18,199,80,1,2.110354618
2321,18,203,0,1,0.754294656
2322,18,207,0,1,0.827645233
2323,18,210,80,1,1.378254291
2324,18,212,160,1,3.028758433
2325,18,213,80,1,1.967866159
2326,18,214,0,1,0.714383082
2327,18,241,80,1,1.577247285
2328,18,244,80,1,1.936189983
2329,18,249,0,1,0.862607474
2330,18,250,40,1,0.954929405
2331,18,253,40,1,0.902001942
2332,18,268,120,1,2.536815688
2333,18,271,120,1,1.91102175
2334,18,279,0,1,0.756512594
2335,18,282,120,1,1.860947485
2336,18,285,80,1,1.553757275
2337,18,289,80,1,1.209795685
2338,18,293,40,1,1.01613092
2339,18,294,40,1,1.091602797
2340,18,297,80,1,1.061480855
2341,18,303,120,1,1.212790375
2342,18,318,80,1,1.347335174
2343,18,328,160,1,2.683151076
2344,18,329,160,1,1.957435434
2345,18,330,0,1,0.65968477
2346,18,341,120,1,1.593192222
2347,18,346,0,1,0.623988809
2348,18,357,40,1,1.178776648
2349,18,358,40,1,1.016439433
2350,18,365,0,1,0.65886681
2351,18,384,80,1,1.426534368
2352,18,385,40,1,1.107331484
2353,18,388,120,1,1.57237599
2354,18,402,40,1,1.101073705
2355,18,407,120,1,1.154517179
2356,18,414,0,1,1.330032197
2357,18,421,120,1,1.510765677
2358,18,430,40,1,1.521674124
2359,18,432,40,1,0.787423323
2360,18,433,40,1,0.846456132
2361,18,436,80,1,1.564454211
2362,18,440,40,1,0.766222727
2363,18,443,160,1,1.286808668
2364,18,444,40,1,1.155153533
2365,18,452,120,1,1.505106326
2366,18,453,80,1,1.096168861
2367,18,454,120,1,1.505227032
2368,18,458,160,1,2.419009353
2369,18,465,160,1,1.749046655
2370,18,471,80,1,2.113923667
2371,18,473,160,1,2.3187795
2372,18,478,160,1,2.1955235
2373,18,479,120,1,2.2084825
2374,18,481,120,1,1.873889345
2375,18,483,80,1,2.895396266
2376,18,489,80,1,2.141424345
2377,18,496,120,1,2.752465094
2378,18,503,120,1,1.525131583
2379,18,510,120,1,2.556861002
2380,18,511,160,1,2.913222548
2381,18,515,40,1,3.613491348
2382,18,518,40,1,2.094113202
2383,18,521,120,1,1.478289409
2384,18,530,160,1,3.017913804
2385,18,535,160,1,1.308200717
2386,18,547,40,1,1.220669123
2387,18,551,160,1,1.206608083
2388,18,557,80,1,1.484605171
2389,18,558,40,1,0.921512647
2390,18,565,0,1,0.721971186
2391,18,567,0,1,0.698262372
2392,18,570,40,1,0.895904984
2393,18,571,0,1,0.799809787
2394,18,572,0,1,0.905993282
2395,18,575,80,1,2.035469864
2396,19,4,40,1,1.204331798
2397,19,6,160,1,2.357002276
2398,19,12,0,1,0.955657291
2399,19,14,160,1,2.25992064
2400,19,18,40,1,0.939443226
2401,19,27,40,1,0.954898772
2402,19,31,0,1,0.723988918
2403,19,38,0,1,0.704524163
2404,19,39,40,1,1.184621982
2405,19,40,80,1,1.261464663
2406,19,46,40,1,0.83149034
2407,19,47,80,1,0.869289367
2408,19,54,160,1,1.809262826
2409,19,59,120,1,1.380992981
2410,19,60,120,1,1.204613325
2411,19,72,0,1,0.794041398
2412,19,78,80,1,1.526798136
2413,19,81,160,1,1.774837019
2414,19,95,120,1,2.341966832
2415,19,96,120,1,1.489622334
2416,19,98,120,1,1.95642128
2417,19,99,80,1,1.442371727
2418,19,103,40,1,0.859064681
2419,19,104,40,1,1.305488284
2420,19,115,40,1,1.104988828
2421,19,120,120,1,1.446181096
2422,19,122,80,1,1.221731414
2423,19,127,160,1,1.573875159
2424,19,130,120,1,1.995149857
2425,19,132,80,1,1.346233134
2426,19,133,120,1,2.275257668
2427,19,141,160,1,2.10618386
2428,19,150,120,1,2.176967143
2429,19,153,0,1,0.608304612
2430,19,154,40,1,0.933573458
2431,19,163,80,1,0.993477834
2432,19,169,160,1,2.895891126
2433,19,173,40,1,0.951233085
2434,19,175,120,1,3.047402311
2435,19,180,120,1,2.542299632
2436,19,182,40,1,1.417114879
2437,19,183,40,1,1.236716168
2438,19,186,80,1,1.565505562
2439,19,197,160,1,1.009202873
2440,19,198,120,1,1.119554939
2441,19,199,0,1,0.771338351
2442,19,205,160,1,1.734286538
2443,19,213,80,1,0.970049089
2444,19,220,80,1,0.758937665
2445,19,223,80,1,1.010125495
2446,19,226,40,1,0.631138212
2447,19,233,120,1,1.361042482
2448,19,237,80,1,0.562365367
2449,19,240,160,1,1.823338817
2450,19,243,120,1,1.161226423
2451,19,244,40,1,1.375297162
2452,19,245,160,1,1.977329409
2453,19,248,40,1,3.598684189
2454,19,255,160,1,1.708357964
2455,19,258,160,1,1.973173967
2456,19,259,0,1,0.632132309
2457,19,260,160,1,3.212101509
2458,19,265,0,1,0.572001836
2459,19,269,80,1,1.623888524
2460,19,270,40,1,0.591706547
2461,19,271,80,1,0.996904296
2462,19,283,120,1,2.797122151
2463,19,290,40,1,1.048758892
2464,19,291,0,1,0.486295063
2465,19,294,80,1,0.891218943
2466,19,296,80,1,1.16306036
2467,19,299,0,1,0.673455895
2468,19,301,120,1,1.035532588
2469,19,308,80,1,1.039680737
2470,19,310,120,1,2.260983296
2471,19,314,80,1,1.126608433
2472,19,317,80,1,2.039227084
2473,19,318,80,1,3.224640041
2474,19,324,120,1,1.05941535
2475,19,325,40,1,1.252789471
2476,19,329,80,1,1.05870278
2477,19,330,120,1,2.303653981
2478,19,335,40,1,0.927661389
2479,19,337,120,1,2.102294993
2480,19,348,160,1,2.34014821
2481,19,357,40,1,0.923593103
2482,19,359,80,1,0.858855724
2483,19,363,40,1,0.714144221
2484,19,366,160,1,1.63956251
2485,19,371,120,1,1.182327099
2486,19,375,80,1,1.215563344
2487,19,377,120,1,1.423778174
2488,19,379,80,1,0.811150005
2489,19,383,120,1,1.029375094
2490,19,391,160,1,0.915837614
2491,19,403,160,1,2.776336187
2492,19,404,160,1,1.288340657
2493,19,415,160,1,1.813488285
2494,19,416,40,1,0.905783231
2495,19,418,80,1,0.731838492
2496,19,420,40,1,0.693486987
2497,19,434,160,1,1.905285088
2498,19,436,0,1,0.589763937
2499,19,438,160,1,1.074467205
2500,19,443,0,1,0.640089826
2501,19,451,160,1,3.440521015
2502,19,456,80,1,1.061727008
2503,19,457,120,1,1.194205209
2504,19,459,80,1,0.618427919
2505,19,466,80,1,1.442254303
2506,19,468,40,1,1.377248525
2507,19,470,0,1,0.780950023
2508,19,477,40,1,0.812448239
2509,19,489,160,1,1.738772009
2510,19,491,160,1,2.048398231
2511,19,502,120,1,0.828246214
2512,19,505,0,1,0.826171228
2513,19,506,120,1,0.98686851
2514,19,508,0,1,0.514073621
2515,19,516,40,1,0.663545192
2516,19,518,40,1,0.54557439
2517,19,525,40,1,0.582079924
2518,19,529,160,1,1.434890108
2519,19,534,40,1,0.558234723
2520,19,539,120,1,0.998219305
2521,19,540,80,1,1.039940383
2522,19,541,120,1,1.975038901
2523,19,543,40,1,0.572666634
2524,19,554,40,1,0.709361542
2525,19,555,120,1,0.684322039
2526,19,556,0,1,0.507609437
2527,19,559,160,1,1.689170724
2528,19,560,160,1,1.848179573
2529,19,566,120,1,1.360044009
2530,19,567,80,1,0.713303651
2531,19,574,40,1,0.556852979
2532,20,3,0,1,0.97033098
2533,20,5,80,1,2.764589359
2534,20,6,120,1,1.391855479
2535,20,14,120,1,3.059003635
2536,20,16,0,1,0.831243092
2537,20,17,0,1,0.87604857
2538,20,19,160,1,3.773245953
2539,20,34,120,1,2.20286545
2540,20,41,80,1,1.14488071
2541,20,46,40,1,1.149338831
2542,20,63,40,1,0.887688185
2543,20,67,0,1,0.721490183
2544,20,70,0,1,0.851866776
2545,20,77,120,1,1.998755738
2546,20,78,40,1,2.71401768
2547,20,80,40,1,1.72561791
2548,20,84,120,1,1.519942294
2549,20,88,80,1,1.127266667
2550,20,98,40,1,1.225439038
2551,20,100,120,1,1.848866252
2552,20,111,120,1,3.593862855
2553,20,112,80,1,3.289740634
2554,20,123,80,1,2.208913542
2555,20,125,120,1,2.081421872
2556,20,140,80,1,1.502711522
2557,20,152,80,1,1.651242968
2558,20,157,80,1,2.494683623
2559,20,158,80,1,1.460747571
2560,20,173,40,1,1.106674709
2561,20,174,80,1,1.666980042
2562,20,177,160,1,3.663013135
2563,20,179,80,1,2.721051482
2564,20,180,0,1,1.078907456
2565,20,188,80,1,1.58695997
2566,20,195,40,1,0.967016473
2567,20,205,40,1,0.904288438
2568,20,207,120,1,1.628678132
2569,20,208,40,1,1.721796143
2570,20,209,40,1,0.778601897
2571,20,212,120,1,1.833714477
2572,20,215,80,1,1.040263483
2573,20,216,80,1,1.051000898
2574,20,226,160,1,2.391901792
2575,20,228,40,1,1.07717198
2576,20,233,40,1,0.749561573
2577,20,245,160,1,3.479628122
2578,20,258,0,1,0.756505665
2579,20,260,40,1,1.00691893
2580,20,264,40,1,0.94039028
2581,20,265,40,1,1.139272413
2582,20,269,120,1,1.645864779
2583,20,274,80,1,1.290522492
2584,20,276,40,1,1.037768759
2585,20,279,0,1,1.394563901
2586,20,286,80,1,1.079176584
2587,20,289,40,1,1.559921698
2588,20,291,40,1,0.794620498
2589,20,299,80,1,1.278311071
2590,20,301,120,1,1.424535234
2591,20,303,80,1,1.057026016
2592,20,304,80,1,1.933589868
2593,20,314,120,1,2.263619877
2594,20,318,120,1,3.465478831
2595,20,333,80,1,1.174923884
2596,20,335,0,1,0.744418233
2597,20,337,160,1,3.814254827
2598,20,342,80,1,1.04208174
2599,20,343,0,1,0.716785179
2600,20,358,160,1,2.958462716
2601,20,360,120,1,1.788531198
2602,20,361,0,1,0.653061954
2603,20,362,120,1,1.096076234
2604,20,363,80,1,1.30644956
2605,20,366,160,1,2.091189259
2606,20,367,40,1,0.772619446
2607,20,370,120,1,1.083377246
2608,20,373,120,1,1.282454479
2609,20,374,120,1,1.709346591
2610,20,396,40,1,0.722408063
2611,20,404,40,1,0.887039432
2612,20,413,80,1,0.943537767
2613,20,417,160,1,3.427778266
2614,20,420,0,1,0.665911187
2615,20,421,0,1,0.54228468
2616,20,435,120,1,2.779742592
2617,20,442,80,1,1.372014746
2618,20,443,0,1,0.704325052
2619,20,444,80,1,0.959961884
2620,20,452,160,1,3.613009981
2621,20,458,120,1,2.273303389
2622,20,463,80,1,0.928262369
2623,20,477,120,1,1.209300095
2624,20,478,40,1,1.043103917
2625,20,479,80,1,0.94313991
2626,20,483,80,1,0.815691636
2627,20,487,80,1,1.50813566
2628,20,488,40,1,1.297985148
2629,20,490,40,1,0.790115335
2630,20,493,40,1,0.789690856
2631,20,496,120,1,1.544962105
2632,20,497,80,1,1.106049296
2633,20,513,160,1,2.429548021
2634,20,518,120,1,1.290734002
2635,20,519,120,1,1.262776025
2636,20,520,160,1,3.697957506
2637,20,521,40,1,1.240521525
2638,20,522,40,1,0.683822073
2639,20,534,40,1,0.747254655
2640,20,539,160,1,2.97585358
2641,20,543,80,1,1.320823853
2642,20,548,80,1,0.885401689
2643,20,552,0,1,0.793511529
2644,20,553,160,1,2.076438624
2645,20,557,160,1,1.816744081
2646,20,563,40,1,0.845216245
2647,20,565,160,1,2.191073038
2648,20,567,40,1,0.844923049
2649,20,568,40,1,0.904656393
2650,20,571,120,1,1.075885051
2651,20,573,40,1,0.658435402
2652,20,576,0,1,0.637243922
2653,21,1,120,1,1.996358381
2654,21,5,160,1,2.180077799
2655,21,11,40,1,2.392387901
2656,21,13,80,1,2.19376432
2657,21,14,40,1,1.575351718
2658,21,18,120,1,1.875261607
2659,21,24,40,1,3.498235168
2660,21,27,40,1,1.557845982
2661,21,28,80,1,1.688662735
2662,21,39,40,1,3.179130016
2663,21,43,40,1,1.755500992
2664,21,44,160,1,3.229582447
2665,21,46,0,1,1.019830522
2666,21,56,160,1,2.539347608
2667,21,62,80,1,1.486191131
2668,21,65,160,1,2.215742398
2669,21,67,120,1,2.791940885
2670,21,73,160,1,2.855756008
2671,21,74,0,1,1.438491977
2672,21,79,120,1,1.858965125
2673,21,88,80,1,1.560333777
2674,21,89,80,1,1.907758297
2675,21,92,40,1,1.360371849
2676,21,94,120,1,2.98249937
2677,21,101,40,1,1.583985702
2678,21,117,40,1,1.503204194
2679,21,118,0,1,1.036187539
2680,21,125,120,1,2.091346797
2681,21,129,80,1,2.746891806
2682,21,131,160,1,2.342050706
2683,21,134,80,1,2.260457802
2684,21,136,80,1,1.808134164
2685,21,141,40,1,1.34370012
2686,21,149,160,1,1.993811144
2687,21,154,120,1,3.402874056
2688,21,156,160,1,1.575328014
2689,21,157,160,1,2.124588877
2690,21,160,80,1,1.461793816
2691,21,161,0,1,1.301797069
2692,21,164,160,1,2.855061672
2693,21,170,40,1,1.17272892
2694,21,172,120,1,2.97433873
2695,21,181,160,1,3.843154752
2696,21,184,80,1,2.336151765
2697,21,187,40,1,1.752443579
2698,21,193,80,1,1.562069983
2699,21,201,40,1,1.082555274
2700,21,206,120,1,1.779249555
2701,21,212,40,1,1.119448819
2702,21,215,0,1,0.929497879
2703,21,217,0,1,0.83766862
2704,21,224,0,1,1.094526012
2705,21,229,40,1,1.528787424
2706,21,235,160,1,3.227104497
2707,21,239,160,1,2.04794859
2708,21,246,120,1,2.29541129
2709,21,256,160,1,2.142619741
2710,21,260,80,1,1.523574432
2711,21,267,80,1,1.695906224
2712,21,271,120,1,1.326400789
2713,21,272,80,1,2.387334635
2714,21,273,80,1,1.810869572
2715,21,282,0,1,0.834151354
2716,21,285,40,1,1.36095569
2717,21,287,160,1,1.820774076
2718,21,292,80,1,1.655534433
2719,21,299,0,1,0.980827712
2720,21,300,120,1,1.518672505
2721,21,303,80,1,1.272800506
2722,21,304,120,1,1.490676238
2723,21,315,120,1,1.458873884
2724,21,316,0,1,0.938818542
2725,21,318,80,1,2.420230641
2726,21,326,160,1,3.810095008
2727,21,332,80,1,1.069806326
2728,21,333,40,1,1.251069311
2729,21,335,0,1,1.240597742
2730,21,338,120,1,2.401356654
2731,21,339,160,1,2.632265414
2732,21,340,40,1,2.523945668
2733,21,341,80,1,1.194127899
2734,21,343,120,1,1.639289005
2735,21,353,40,1,0.968262923
2736,21,357,0,1,0.874148262
2737,21,359,40,1,1.618672979
2738,21,365,40,1,1.288106902
2739,21,366,40,1,1.36908278
2740,21,368,160,1,3.089682068
2741,21,375,0,1,0.822710486
2742,21,377,160,1,2.111490938
2743,21,381,80,1,1.32059411
2744,21,385,80,1,1.438041972
2745,21,388,0,1,0.806154723
2746,21,390,120,1,1.722381077
2747,21,396,120,1,1.926303713
2748,21,399,120,1,2.604477011
2749,21,406,40,1,1.594786935
2750,21,417,80,1,2.00788203
2751,21,424,40,1,2.708231787
2752,21,427,120,1,1.453344721
2753,21,428,0,1,0.9590265
2754,21,437,160,1,2.573028754
2755,21,439,40,1,1.440592126
2756,21,440,40,1,0.896423183
2757,21,444,40,1,1.473595346
2758,21,445,160,1,1.708058933
2759,21,454,80,1,2.145703776
2760,21,462,80,1,1.413168394
2761,21,463,160,1,2.495487726
2762,21,470,40,1,2.022097691
2763,21,472,40,1,1.543855324
2764,21,486,160,1,2.252330348
2765,21,489,160,1,2.843141259
2766,21,494,40,1,1.224355961
2767,21,498,40,1,1.077092481
2768,21,502,80,1,1.055578996
2769,21,507,40,1,0.891589815
2770,21,511,120,1,2.087214694
2771,21,512,160,1,2.049814619
2772,21,517,80,1,1.137549336
2773,21,523,160,1,3.011944116
2774,21,525,120,1,1.832767787
2775,21,527,120,1,1.818628343
2776,21,531,80,1,1.507734885
2777,21,544,160,1,1.955363365
2778,21,546,0,1,0.944049038
2779,21,547,80,1,1.34731767
2780,21,551,160,1,1.591439971
2781,21,552,120,1,2.658669157
2782,21,559,160,1,1.961745862
2783,21,561,120,1,1.68759388
2784,21,569,80,1,2.301605981
2785,21,575,80,1,1.591509259
2786,22,2,40,1,0.712246052
2787,22,6,160,1,2.862467954
2788,22,9,80,1,0.471830909
2789,22,10,120,1,0.906802227
2790,22,11,120,1,1.259316823
2791,22,13,40,1,1.538738381
2792,22,15,40,1,0.652129867
2793,22,16,0,1,0.664899588
2794,22,18,40,1,0.491909751
2795,22,19,160,1,0.714778699
2796,22,22,40,1,0.643934957
2797,22,23,120,1,0.543107516
2798,22,27,40,1,0.477196328
2799,22,31,40,1,0.433189896
2800,22,32,120,1,0.70926194
2801,22,35,80,1,0.889315839
2802,22,38,40,1,1.223602668
2803,22,39,0,1,0.572192664
2804,22,41,80,1,1.176274438
2805,22,42,120,1,0.857304198
2806,22,43,120,1,0.978076282
2807,22,48,40,1,0.59976114
2808,22,49,120,1,1.906917099
2809,22,49,160,1,0.609954817
2810,22,52,0,1,0.547271342
2811,22,53,80,1,0.576423224
2812,22,55,160,1,1.315443496
2813,22,59,80,1,0.593023459
2814,22,60,160,1,1.191628954
2815,22,61,80,1,0.804630241
2816,22,62,120,1,0.790002516
2817,22,63,80,1,0.822331786
2818,22,67,80,1,0.56880012
2819,22,68,120,1,0.858110124
2820,22,69,80,1,0.519726934
2821,22,70,40,1,0.52833684
2822,22,74,40,1,0.638804386
2823,22,74,120,1,0.575228923
2824,22,76,160,1,1.310063125
2825,22,77,0,1,0.467941317
2826,22,79,0,1,0.442410628
2827,22,82,160,1,0.844260609
2828,22,84,80,1,0.814520146
2829,22,85,160,1,0.750462222
2830,22,88,80,1,1.152910995
2831,22,89,120,1,0.667011768
2832,22,91,80,1,0.612209584
2833,22,92,40,1,0.58625624
2834,22,93,80,1,0.568070411
2835,22,95,40,1,0.506968518
2836,22,98,40,1,0.514940978
2837,22,100,120,1,0.960088105
2838,22,101,80,1,1.217713215
2839,22,103,160,1,0.610300162
2840,22,104,160,1,0.98601191
2841,22,106,0,1,0.603148578
2842,22,111,40,1,0.615825672
2843,22,112,40,1,0.640847644
2844,22,116,160,1,0.899432206
2845,22,119,120,1,0.613352831
2846,22,121,120,1,0.577841798
2847,22,124,120,1,0.589006232
2848,22,125,80,1,0.570324449
2849,22,127,120,1,0.739069138
2850,22,129,120,1,0.782857497
2851,22,129,120,1,0.90590951
2852,22,131,40,1,0.486816377
2853,22,135,160,1,0.848267261
2854,22,137,0,1,0.592353192
2855,22,138,40,1,0.521619581
2856,22,139,120,1,0.945034443
2857,22,142,160,1,0.753751928
2858,22,143,80,1,0.581378023
2859,22,145,160,1,0.530356394
2860,22,146,120,1,1.078470128
2861,22,147,40,1,0.638232216
2862,22,147,80,1,0.464318665
2863,22,149,120,1,0.574399659
2864,22,151,40,1,0.454177865
2865,22,151,160,1,0.604304224
2866,22,154,40,1,0.482285327
2867,22,157,0,1,0.438301868
2868,22,160,80,1,0.699679453
2869,22,161,160,1,0.731366536
2870,22,163,160,1,0.700982062
2871,22,170,80,1,0.553602413
2872,22,174,80,1,1.275090712
2873,22,175,160,1,0.706069237
2874,22,177,40,1,0.643355129
2875,22,179,120,1,0.629630697
2876,22,183,40,1,0.684900025
2877,22,187,40,1,0.610765848
2878,22,188,0,1,0.473463546
2879,22,191,160,1,0.880744223
2880,22,191,40,1,0.493229499
2881,22,196,80,1,0.95453342
2882,22,197,0,1,0.807553087
2883,22,200,0,1,0.48357736
2884,22,205,0,1,0.500361755
2885,22,206,160,1,0.818337168
2886,22,207,160,1,0.690523268
2887,22,207,40,1,0.552333354
2888,22,209,120,1,1.113355019
2889,22,211,120,1,0.868764746
2890,22,213,40,1,0.448980559
2891,22,214,160,1,0.664116637
2892,22,221,80,1,1.090090767
2893,22,223,160,1,1.537443066
2894,22,224,80,1,0.582279857
2895,22,227,160,1,0.793666011
2896,22,229,80,1,0.542977328
2897,22,230,160,1,1.066058151
2898,22,230,160,1,0.770101634
2899,22,231,160,1,0.841016487
2900,22,233,80,1,0.664086004
2901,22,234,40,1,0.686713539
2902,22,237,80,1,0.787733527
2903,22,244,120,1,1.091760965
2904,22,246,40,1,0.549879111
2905,22,250,80,1,0.597556333
2906,22,252,80,1,0.846143776
2907,22,252,160,1,0.795418625
2908,22,254,80,1,0.607197532
2909,22,255,160,1,1.076658437
2910,22,256,40,1,0.527757012
2911,22,261,0,1,0.403896156
2912,22,267,120,1,0.818433442
2913,22,269,120,1,1.105905134
2914,22,269,80,1,0.585711056
2915,22,270,120,1,1.778563119
2916,22,271,0,1,0.549694223
2917,22,271,0,1,0.472546395
2918,22,277,0,1,0.47462612
2919,22,277,120,1,0.669866421
2920,22,278,80,1,0.538575372
2921,22,280,40,1,0.669820837
2922,22,280,120,1,0.603153319
2923,22,281,120,1,0.685028025
2924,22,286,40,1,0.552246562
2925,22,288,80,1,0.602790106
2926,23,1,40,1,1.618141286
2927,23,3,80,1,1.069873426
2928,23,4,0,1,0.732827484
2929,23,6,40,1,1.08517654
2930,23,7,160,1,1.555625856
2931,23,16,160,1,1.723354388
2932,23,20,120,1,1.078077097
2933,23,22,160,1,2.558111099
2934,23,39,80,1,1.581361884
2935,23,40,80,1,1.484653308
2936,23,42,160,1,1.20735238
2937,23,60,40,1,0.999252057
2938,23,62,120,1,1.193552446
2939,23,64,160,1,1.125709516
2940,23,71,80,1,1.027584552
2941,23,73,0,1,0.674216237
2942,23,74,120,1,1.500251442
2943,23,80,40,1,0.954218294
2944,23,82,40,1,0.725694491
2945,23,83,80,1,0.976472064
2946,23,88,0,1,1.688566462
2947,23,91,40,1,0.937765368
2948,23,92,0,1,0.736201798
2949,23,95,40,1,0.824820116
2950,23,96,40,1,0.639273325
2951,23,105,160,1,2.49785445
2952,23,111,40,1,0.727344269
2953,23,112,120,1,1.340756848
2954,23,116,120,1,1.860140829
2955,23,124,80,1,1.379354873
2956,23,133,160,1,1.73896638
2957,23,139,120,1,1.097590719
2958,23,142,160,1,1.741034072
2959,23,144,80,1,0.884201187
2960,23,156,120,1,1.776084928
2961,23,157,120,1,1.104575654
2962,23,163,80,1,0.895499103
2963,23,165,120,1,1.010616708
2964,23,167,80,1,0.940795066
2965,23,169,120,1,2.113537115
2966,23,171,40,1,0.809717937
2967,23,174,80,1,1.661759391
2968,23,176,80,1,0.974002138
2969,23,178,80,1,1.228822104
2970,23,181,80,1,0.786731539
2971,23,189,40,1,0.76130913
2972,23,192,120,1,0.792359164
2973,23,193,0,1,0.837279879
2974,23,194,40,1,0.617808705
2975,23,208,0,1,0.670188795
2976,23,210,40,1,0.876620012
2977,23,212,0,1,0.861422653
2978,23,227,40,1,1.287364064
2979,23,231,120,1,1.616922916
2980,23,240,80,1,1.011149495
2981,23,241,160,1,1.923597479
2982,23,244,80,1,1.389965017
2983,23,247,120,1,1.272088665
2984,23,252,40,1,1.406227584
2985,23,260,160,1,3.063176217
2986,23,265,120,1,1.025049714
2987,23,266,40,1,1.084503354
2988,23,268,80,1,0.821998281
2989,23,271,0,1,0.677195975
2990,23,282,160,1,1.605197239
2991,23,286,160,1,2.436516547
2992,23,287,120,1,0.926139246
2993,23,288,120,1,0.808982757
2994,23,293,40,1,0.695936127
2995,23,294,80,1,1.316854029
2996,23,295,40,1,0.871977002
2997,23,296,80,1,1.131245973
2998,23,299,40,1,0.74378662
2999,23,302,120,1,1.375404741
3000,23,307,80,1,0.981762002
3001,23,308,0,1,0.580785337
3002,23,311,80,1,0.684162677
3003,23,313,40,1,0.789484452
3004,23,316,160,1,2.254796628
3005,23,319,40,1,1.159142684
3006,23,322,120,1,0.943403568
3007,23,325,120,1,2.558132979
3008,23,328,80,1,0.874781698
3009,23,335,160,1,0.902880438
3010,23,339,160,1,1.411733044
3011,23,349,160,1,1.143435878
3012,23,353,120,1,1.043068543
3013,23,355,120,1,1.033781431
3014,23,358,80,1,2.738408431
3015,23,359,80,1,0.747785983
3016,23,377,40,1,0.794658424
3017,23,387,80,1,2.06338955
3018,23,393,120,1,1.384816207
3019,23,402,0,1,0.938677413
3020,23,404,120,1,0.983481068
3021,23,405,160,1,1.042147016
3022,23,407,80,1,0.779082171
3023,23,408,0,1,0.559582917
3024,23,414,80,1,1.473018799
3025,23,418,80,1,0.974579414
3026,23,419,40,1,0.751580764
3027,23,420,120,1,1.28490216
3028,23,422,0,1,0.610141467
3029,23,423,120,1,1.088412278
3030,23,425,160,1,1.068619682
3031,23,427,160,1,0.95412202
3032,23,428,80,1,0.905461954
3033,23,443,80,1,0.993269241
3034,23,456,160,1,1.673601764
3035,23,459,160,1,1.097950286
3036,23,460,40,1,0.583829987
3037,23,468,160,1,3.125336821
3038,23,469,160,1,2.559300296
3039,23,470,40,1,0.950797302
3040,23,483,160,1,1.146450625
3041,23,489,80,1,1.044586675
3042,23,490,40,1,0.54404933
3043,23,491,80,1,1.217101168
3044,23,495,120,1,0.877981334
3045,23,498,120,1,1.030963607
3046,23,500,40,1,0.832858591
3047,23,503,160,1,1.732992316
3048,23,511,40,1,0.927724477
3049,23,512,40,1,0.727396418
3050,23,514,120,1,1.445614759
3051,23,515,80,1,1.221084485
3052,23,519,120,1,2.259761278
3053,23,535,0,1,0.570813734
3054,23,541,40,1,1.14405655
3055,23,543,40,1,0.892075923
3056,23,553,120,1,1.110117581
3057,23,556,120,1,0.843074524
3058,23,558,120,1,1.284632303
3059,23,562,40,1,0.759230497
3060,23,570,0,1,0.560740752
3061,24,6,80,1,0.922667929
3062,24,7,0,1,0.726173671
3063,24,8,120,1,1.693765232
3064,24,9,80,1,1.605860942
3065,24,10,40,1,1.477301876
3066,24,16,80,1,1.225151312
3067,24,17,80,1,1.341706091
3068,24,18,80,1,1.470563459
3069,24,19,160,1,1.833285257
3070,24,22,120,1,2.909485385
3071,24,26,40,1,1.029452769
3072,24,28,40,1,0.99694441
3073,24,31,40,1,0.952094806
3074,24,36,120,1,1.208660824
3075,24,38,120,1,1.291493614
3076,24,39,160,1,3.009347284
3077,24,52,40,1,0.85235799
3078,24,56,40,1,0.954300345
3079,24,60,120,1,1.217012188
3080,24,68,160,1,1.716557259
3081,24,73,80,1,1.367853104
3082,24,78,120,1,2.229947119
3083,24,79,0,1,0.754640001
3084,24,85,120,1,1.293827153
3085,24,86,0,1,0.797662231
3086,24,89,160,1,1.734089251
3087,24,91,160,1,1.061575305
3088,24,93,160,1,3.337444529
3089,24,100,40,1,0.968580188
3090,24,103,40,1,0.837930455
3091,24,108,40,1,0.933762358
3092,24,111,120,1,1.576490225
3093,24,131,120,1,2.014350589
3094,24,133,120,1,0.955904539
3095,24,142,80,1,1.244411851
3096,24,144,0,1,0.666774002
3097,24,149,80,1,0.97352624
3098,24,151,40,1,0.702570977
3099,24,155,80,1,1.058498199
3100,24,159,80,1,1.62859061
3101,24,161,120,1,1.036862913
3102,24,164,160,1,2.111462858
3103,24,178,0,1,1.023722306
3104,24,184,160,1,1.469656883
3105,24,185,40,1,1.631217711
3106,24,192,80,1,1.123439065
3107,24,193,40,1,0.772409759
3108,24,196,160,1,0.989342813
3109,24,197,0,1,0.905684769
3110,24,203,40,1,0.673630208
3111,24,205,160,1,1.37440955
3112,24,206,160,1,0.959814557
3113,24,214,80,1,1.258130828
3114,24,219,120,1,0.886168595
3115,24,220,80,1,1.012131193
3116,24,223,80,1,0.706685941
3117,24,225,160,1,1.055975395
3118,24,229,120,1,0.906441464
3119,24,232,80,1,0.906833852
3120,24,235,120,1,1.157557089
3121,24,241,120,1,0.768316311
3122,24,248,160,1,1.296306561
3123,24,252,160,1,1.906258034
3124,24,253,0,1,0.595166559
3125,24,258,0,1,0.669641421
3126,24,263,40,1,0.989888727
3127,24,264,80,1,0.814451385
3128,24,270,40,1,0.675554949
3129,24,279,160,1,0.966667117
3130,24,280,40,1,0.843762296
3131,24,282,120,1,1.628392229
3132,24,283,160,1,1.278475173
3133,24,290,80,1,0.707017063
3134,24,291,40,1,0.965662444
3135,24,295,120,1,1.757379055
3136,24,299,40,1,0.598400839
3137,24,302,120,1,0.92147618
3138,24,332,0,1,0.773089873
3139,24,333,120,1,1.366838221
3140,24,334,40,1,1.378834485
3141,24,336,120,1,1.826141324
3142,24,337,0,1,0.670973205
3143,24,346,80,1,1.29964769
3144,24,354,160,1,2.11387626
3145,24,360,40,1,0.978133876
3146,24,362,0,1,0.658818308
3147,24,368,80,1,1.238793707
3148,24,369,160,1,3.048881422
3149,24,374,80,1,0.761323352
3150,24,375,0,1,0.610346413
3151,24,378,40,1,0.653804792
3152,24,379,160,1,1.759882167
3153,24,381,160,1,1.87624914
3154,24,384,120,1,0.92287871
3155,24,390,80,1,1.072376537
3156,24,391,160,1,1.336650637
3157,24,402,120,1,0.931241378
3158,24,404,160,1,1.311232604
3159,24,405,80,1,0.80517813
3160,24,417,160,1,1.82808904
3161,24,425,80,1,0.809067361
3162,24,427,40,1,0.612522778
3163,24,429,80,1,0.645238272
3164,24,438,80,1,0.660510753
3165,24,441,160,1,0.841001726
3166,24,445,80,1,0.903750547
3167,24,448,80,1,0.69367297
3168,24,452,80,1,0.594722752
3169,24,454,120,1,1.308217492
3170,24,455,120,1,1.958351126
3171,24,459,160,1,1.180195224
3172,24,463,120,1,0.822426406
3173,24,464,40,1,0.714182147
3174,24,465,120,1,0.882155375
3175,24,466,40,1,0.837847674
3176,24,471,120,1,1.000926997
3177,24,477,0,1,0.529612678
3178,24,486,160,1,1.222511448
3179,24,487,0,1,0.619510267
3180,24,495,80,1,0.640644493
3181,24,498,120,1,0.79298166
3182,24,517,40,1,0.767944345
3183,24,518,40,1,0.526110729
3184,24,527,160,1,1.144293588
3185,24,531,160,1,0.638086316
3186,24,533,40,1,0.566723932
3187,24,537,160,1,1.561932866
3188,24,539,160,1,1.474398354
3189,24,542,120,1,0.822453757
3190,24,545,40,1,0.725317785
3191,24,546,120,1,1.708116551
3192,24,549,40,1,0.565662736
3193,24,555,0,1,0.666594218
3194,24,557,40,1,0.911888941
3195,24,562,160,1,2.495622655
3196,24,563,80,1,0.728677876
3197,24,564,120,1,1.273520004
3198,24,569,80,1,0.675980157
3199,24,571,160,1,1.105591267
3200,24,572,40,1,0.814035294
3201,24,574,0,1,0.563000262
3202,24,575,80,1,0.973237784
